Header,foot_Accel_X,foot_Accel_Y,foot_Accel_Z,foot_Gyro_X,foot_Gyro_Y,foot_Gyro_Z,shank_Accel_X,shank_Accel_Y,shank_Accel_Z,shank_Gyro_X,shank_Gyro_Y,shank_Gyro_Z,thigh_Accel_X,thigh_Accel_Y,thigh_Accel_Z,thigh_Gyro_X,thigh_Gyro_Y,thigh_Gyro_Z,trunk_Accel_X,trunk_Accel_Y,trunk_Accel_Z,trunk_Gyro_X,trunk_Gyro_Y,trunk_Gyro_Z
11.165,0.177689098086809,1.80156305019757,0.912532296963194,2.19152431724817,-3.34972703183234,-1.4043368449708,-0.518511878793435,-0.0951058267126955,0.0558587320340553,3.00787922697642,-0.667000542298278,1.30464472644989,-1.18856078046453,-0.184675803885912,-0.293826917784924,0.12260795603091,-0.469281767660546,1.94790557548663,-1.00720323291818,-0.0621819680761493,-0.289997772495842,0.750915918070986,-0.560336595580335,0.0561291611921066
11.17,0.244691179428281,1.60604168550392,0.600627962040736,1.85117057426649,-3.19160289274771,-0.92994688524841,-0.53705416301732,-0.119801081289344,0.154871918138019,2.89806853454597,-0.880759657799289,1.45081570108838,-1.14468789117584,-0.150485789137267,-0.306956089747657,0.202746920911745,-0.457185142712328,1.95869767477175,-1.00115659036966,-0.0850117416356242,-0.273590496924063,0.695102121045145,-0.760010391884116,0.045594629239121
11.175,0.347018232934952,1.48503628986221,0.378269119985219,1.50259659431156,-2.92301175838802,-0.455089606372455,-0.546026668418853,-0.119492521065716,0.176693976837897,2.60753243715147,-1.16875209512653,1.65722592827966,-1.11257609814924,-0.119971494473005,-0.323930584357524,0.286498735548134,-0.447764983786429,1.95387755143526,-0.996793522775359,-0.130843564371713,-0.24360301367226,0.772891651780957,-0.940953612619437,0.055448466332327
11.18,0.310291993416325,1.35736853640405,0.350050971383452,1.26840708496048,-2.6490926850959,0.023379216582245,-0.527643709302175,-0.125558351420994,0.0842192689511312,2.36612616771129,-1.31178963808267,1.77865562130191,-1.07644685952914,-0.0952308763269684,-0.347752444716743,0.359960890723062,-0.420910412524527,1.95416782922654,-0.980638686447321,-0.155745966367593,-0.203689418990182,0.949902122946863,-1.02668185984508,0.0694008025956287
11.185,0.187802743741027,1.04874365389489,0.456226477001745,1.2798932645033,-2.47535088434703,0.60127014832981,-0.524284689003433,-0.111167688519551,0.00015222427217125,2.01610966534156,-1.4184681401573,1.883400357598,-1.03351004664842,-0.085982463087088,-0.359470499152164,0.419525313318539,-0.394009453324176,1.94133531251785,-0.948554034380274,-0.169829328748129,-0.148981270872767,1.15482760720072,-0.961557258509171,0.0741091075675661
11.19,0.130831477375392,0.72604213955477,0.578735361316708,1.71138895863848,-2.46769571176776,1.18004489851196,-0.548390735100451,-0.0612712194767333,0.00328411542310501,1.64957286580941,-1.53834603190836,1.951152496367,-0.998473628686801,-0.0744268532543161,-0.358260655858746,0.424914313749601,-0.355519853053795,1.91806294171514,-0.894383986698164,-0.187734221401383,-0.103377555967816,1.4072494041465,-0.670463932444982,0.0944591098323787
11.195,0.139323099084551,0.708309262466907,0.603347189912907,2.29599987006661,-2.49563275247012,1.65022078360514,-0.575046840571786,0.0063566805314383,0.0425450776691919,1.33815467747386,-1.67969548280517,1.98031763764634,-0.961899227851733,-0.0774947031776889,-0.37021091004584,0.355196753175164,-0.318481434726881,1.90781881278708,-0.850689865188542,-0.17061079065645,-0.0634806712422579,1.47572068787077,-0.262544118747927,0.0817066522844938
11.2,0.130904525801204,0.764219786714976,0.646476702896889,2.50002027526301,-2.44722815338624,1.91626243300382,-0.5831059467626,0.086469924018664,0.0804544700938095,1.01946260049885,-1.81366795806678,1.99900968499132,-0.928148000284802,-0.0966952733016997,-0.35729143153176,0.232451350279765,-0.29057282050554,1.88977971933793,-0.828263999643243,-0.166288389086467,-0.069985877610582,1.44707897341499,0.125667530789649,0.045891628870187
11.205,0.0894439399359658,0.768235980576608,0.766867036769122,2.53969361830581,-2.39346227828198,2.17875034105201,-0.578982566511647,0.191638924468517,0.0530103054440303,0.520843825461892,-1.98264583183609,2.03649913552794,-0.920072227851589,-0.0953269028853736,-0.359801720167872,0.0782758343887247,-0.258093221474986,1.8729287026785,-0.834276811146901,-0.172634679014446,-0.0802815902194424,1.44582604810631,0.400199153596318,0.0241004238677945
11.21,0.0204971940020733,0.695516535903585,0.885624846587993,2.43802161615713,-2.40844653582668,2.37094132269756,-0.583218181927848,0.249229218453774,0.0125361640768512,0.0217324188794172,-2.13431624751703,2.04950044872968,-0.912174310364643,-0.10181069465245,-0.359570970426031,-0.0642458805035686,-0.238041848178179,1.87003545676767,-0.846080313479099,-0.18558803661638,-0.098028299927526,1.46540553703193,0.569528721467848,0.00775004154630019
11.215,-0.0432144492087706,0.540984435344605,1.00611517794869,2.30598379881294,-2.48582383907176,2.55299949348544,-0.605800863264955,0.241525050006607,-0.0162416608975934,-0.512682621056281,-2.30700011026689,2.05618733546871,-0.902285373630757,-0.105406345149508,-0.362246410044817,-0.279447198547309,-0.203154365663215,1.85602911870931,-0.871137003566295,-0.190113524311906,-0.115802559261882,1.50742289229966,0.575107354060056,0.0143220103529894
11.22,-0.0473500528414635,0.390283276505524,1.07193068162536,2.24819623333934,-2.58878336509209,2.66737113555413,-0.63692491301126,0.168416023143225,-0.0276684198568002,-1.0616625754622,-2.50222012435471,2.08305235559236,-0.888384180225361,-0.115534326970058,-0.369676658106045,-0.495245796812518,-0.163170415468546,1.81548526229886,-0.891828054785551,-0.192806504506575,-0.117668695469698,1.58328878632118,0.44109553162972,0.0387899362020004
11.225,-0.0347586717867716,0.265553271456019,1.10267889416447,2.33474561668098,-2.6801284509555,2.7546860482538,-0.680492015051561,0.0741348993277032,-0.0250435228944567,-1.46902081399353,-2.71326883073256,2.1113271680054,-0.880907168281017,-0.112444274412614,-0.377517076685588,-0.649142513166706,-0.12168923329431,1.77129159547351,-0.896287770766734,-0.200340529891102,-0.114116273755374,1.64773492607191,0.314796880597544,0.0716255334400313
11.23,-0.0317755938880575,0.143071209945859,1.14783807235897,2.51861453360695,-2.77835538617779,2.84774677422628,-0.723170625006267,-0.00987032678690596,-0.0334466515287377,-1.72192919297029,-2.90983331327206,2.12045638571401,-0.873338714857213,-0.112025272746308,-0.373339460545529,-0.78272953989114,-0.0675455639388989,1.74718713431125,-0.891114746261806,-0.197567408139409,-0.112942916478251,1.70552659746428,0.181996044028996,0.111438477593841
11.235,-0.0406244138031004,0.0712388102102688,1.17400666876484,2.73199977617183,-2.86203562914144,2.93332337907361,-0.768727657725125,-0.0993369597706581,-0.0476349068256714,-1.86660241034876,-3.0702112235912,2.12367693268387,-0.857213129150328,-0.11495973022992,-0.359886729997958,-0.888578716823237,-0.0114111068359231,1.72088677274061,-0.877334034061549,-0.190453010686722,-0.113322895526495,1.70955397165329,0.11438421230947,0.137456198851535
11.24,-0.0618162445955758,0.00895424661012856,1.20855026418143,2.99088109180876,-2.96203188878383,3.0391204798039,-0.831457990798512,-0.187363086470156,-0.0824902447671929,-2.00391908590336,-3.28062229476353,2.12491178512573,-0.83878721223071,-0.115109813047362,-0.336967861419712,-0.942535646431642,0.0325554119059025,1.70889013423788,-0.858704189941676,-0.18577759488402,-0.118108224691353,1.69332609969644,0.059814282490475,0.154613676278209
11.245,-0.085632610944455,-0.0797880623913571,1.26518219322867,3.16596716075831,-3.03525122710189,3.10271446001408,-0.873998444320317,-0.237716178916846,-0.115443485966491,-2.04952030972322,-3.44177191648552,2.11802240566793,-0.815749616139188,-0.115149309249685,-0.306883503725607,-0.98556416435803,0.0759487240670929,1.7013227899201,-0.839656601018688,-0.177574333689033,-0.12181526528008,1.67936651613709,0.0270587780530039,0.155773970263009
11.25,-0.122518277957886,-0.200320700494705,1.3331113718121,3.34363036512582,-3.12381317189311,3.12726296874231,-0.911702518568767,-0.260130817727126,-0.143495381053545,-2.03026924985747,-3.58383983028025,2.10452987131092,-0.79973124348135,-0.115876379417024,-0.284864125616218,-1.01378710137172,0.113896247645527,1.68528473698869,-0.833898104073709,-0.173151671167528,-0.125048938223667,1.68284538604694,0.00357376596781129,0.144561699565562
11.255,-0.150970892315725,-0.288515476256408,1.38834188272187,3.52107613551127,-3.21706154362716,3.11034970880688,-0.956481802669536,-0.27581036337337,-0.155148606761751,-1.97245541938096,-3.72853540472576,2.07590902416999,-0.782513940244688,-0.111012460889048,-0.246691984439834,-1.04558867966895,0.147641895328784,1.66106472346362,-0.828768428214163,-0.170623477710036,-0.123744849442825,1.70886675965842,-0.0178802197829714,0.137383910384578
11.26,-0.187165021745129,-0.358495823646249,1.44188239219577,3.63561849018033,-3.32324225479459,3.02480581422566,-0.983153645513701,-0.289219273897952,-0.160973577296173,-1.92863678219556,-3.86778630612727,2.04081921526611,-0.759269822286829,-0.107531887436638,-0.201727980027065,-1.05707376498729,0.180553826680406,1.63245274007321,-0.827595204727519,-0.164229822505352,-0.121853339522821,1.76834405524042,-0.0477583775625162,0.13252329405498
11.265,-0.220952834464376,-0.45442946904741,1.50745881116342,3.7018407868157,-3.46747929814214,2.85544091158684,-0.997860635691457,-0.295118273862186,-0.190608863320993,-1.86353451908048,-4.0366364405784,1.9934353161276,-0.751825274867418,-0.0979837684282763,-0.160838428699572,-1.04932609947987,0.217344119276763,1.57979636325655,-0.82683368609345,-0.159648006669319,-0.120986927072325,1.81541402340772,-0.0823384586831588,0.129592950316262
11.27,-0.237237060582961,-0.517197665315944,1.5463646599433,3.72040739933936,-3.56976784812712,2.71292329163768,-1.0069304387683,-0.313373681887545,-0.206266046098377,-1.8072914877032,-4.19109446257337,1.94241872906744,-0.72433096726098,-0.113153808477074,-0.137831596713009,-1.02260719494643,0.246560074002576,1.530667942116,-0.829222529720758,-0.150858594475293,-0.121668420456751,1.82665597944056,-0.111558485918671,0.12299478529825
11.275,-0.257717728985903,-0.590163402073408,1.58075669883966,3.71269703364592,-3.66992326909621,2.52575249685177,-1.03340637215326,-0.320769870392419,-0.215203544171815,-1.79260565566668,-4.33559367030151,1.8783087383072,-0.725485108445031,-0.121030008466288,-0.117961676287959,-0.965347156400678,0.277237365372875,1.47734568278051,-0.831547228296589,-0.14527604673542,-0.120423861455991,1.82042292147865,-0.137698000135003,0.126587395726529
11.28,-0.301671077078726,-0.680562339764156,1.6184161160445,3.70453579417147,-3.80648422251529,2.24108172635347,-1.0647387290511,-0.331848258384246,-0.245428940695708,-1.75070785557476,-4.49230132839635,1.80002840721224,-0.728547424632214,-0.127458616657301,-0.105602713703094,-0.891811639831933,0.304608418128564,1.42425291175459,-0.827412517934235,-0.144438809502031,-0.113906374214936,1.80682020361807,-0.167225483745463,0.135521978493385
11.285,-0.350357908255705,-0.734592316238568,1.65534981357608,3.70897689297444,-3.95152458243501,1.94087266475739,-1.10058725240526,-0.378721656832702,-0.293633539518549,-1.6266330834773,-4.67126879236185,1.68708263953989,-0.720632149088276,-0.135253434699637,-0.10503125255491,-0.812248129155265,0.324135690119597,1.36870872602002,-0.830951958777786,-0.144481762747739,-0.107732510409989,1.79584702094608,-0.212743989974828,0.148014115587664
11.29,-0.403753237128248,-0.778492313623421,1.69496268272399,3.70603124775616,-4.06893801551491,1.7023992805882,-1.12135218703606,-0.454160302920551,-0.343046493272472,-1.41327435615307,-4.82769514882378,1.58563823264649,-0.709039327165451,-0.146187792958183,-0.117500802283831,-0.732681464920175,0.343380771532285,1.31085041847872,-0.837003751836553,-0.14226322492426,-0.0944902229744185,1.79801210614886,-0.270248877817252,0.162354581632316
11.295,-0.44797280453692,-0.805814710743962,1.71930139833141,3.70784337994908,-4.18323167100348,1.47572666468495,-1.14593219604951,-0.538273962283518,-0.381057121929201,-1.11459878845054,-4.96157043481518,1.49355122350728,-0.692684879021236,-0.152331195791856,-0.128544332983862,-0.652610874800066,0.357780096672886,1.26321155778752,-0.833658901377436,-0.145155149736236,-0.0723734055997468,1.81101634381952,-0.30641014380019,0.175575899649191
11.3,-0.514408618562029,-0.818505821486025,1.75313103463785,3.70590009144829,-4.30323784640091,1.24111840268266,-1.17424393267698,-0.618295640737968,-0.428405918167611,-0.703069327574136,-5.10614361650808,1.40057689397411,-0.68720205295942,-0.153764032153863,-0.144414288551128,-0.548134516768166,0.371670342438038,1.21902638528308,-0.832748263458767,-0.157709853254536,-0.0463395037381038,1.82348384755866,-0.309466339170772,0.192210653183286
11.305,-0.586667628680866,-0.814600067917618,1.79242907653041,3.68962450926478,-4.4118236079903,1.04140995882778,-1.20117066024551,-0.651328783361272,-0.468467688840032,-0.223804288845186,-5.23092567417108,1.32067649737955,-0.693779614355238,-0.152326038785195,-0.159509729747426,-0.462492053003856,0.378931982752698,1.18190302280652,-0.842988496737304,-0.168892446051574,-0.0404560104714985,1.82580923386894,-0.267233440342829,0.202995914075517
11.31,-0.689575639525834,-0.752172164964667,1.8384373917171,3.6317916974838,-4.55035036342177,0.834816022905353,-1.23224608994035,-0.636423488700191,-0.520683259725861,0.411854967431917,-5.35885973327112,1.24062353317782,-0.701151929991891,-0.154563388738224,-0.17405460601923,-0.393751952759275,0.371453364116908,1.15263662413304,-0.850554916072615,-0.178429140977029,-0.0622435686371952,1.80634146738312,-0.172390957789008,0.201912051088022
11.315,-0.762081440883845,-0.699168478065068,1.86280074141787,3.5048205158597,-4.67085885339023,0.692112508673701,-1.25516376557591,-0.606976370956328,-0.567266520728874,0.700333945329134,-5.4504402121446,1.17680861370026,-0.704922642906794,-0.157664058255403,-0.183501757706546,-0.344570673014837,0.354560352933764,1.11968616136078,-0.852318530422569,-0.184694318824536,-0.0875111662873794,1.78172260009369,-0.0536297967234578,0.191308413935566
11.32,-0.859531021887913,-0.701036435332559,1.88392190937678,3.34761352934678,-4.79952464716356,0.590111143583159,-1.27381330927426,-0.549529771830128,-0.621866320213695,1.21186030312386,-5.50708829269735,1.12755004439442,-0.711018216546105,-0.166066260224555,-0.180056135776655,-0.341166607697082,0.32241669476611,1.07778356961503,-0.856009489639222,-0.1882631397582,-0.110796206500864,1.77419257164001,0.0604620435502257,0.176645435841829
11.325,-0.920272519461517,-0.720465183787086,1.89245497183782,3.25299932758696,-4.89313227170846,0.535447804200666,-1.28780265143928,-0.49284776384364,-0.657647080196787,1.57318570984513,-5.54750664365691,1.06736375961244,-0.709326293145919,-0.181917509724874,-0.1577546777516,-0.371252214705367,0.285562532896205,1.03606216318465,-0.87250612981664,-0.197378406337845,-0.113971388439963,1.79701068406769,0.122139177906774,0.167791751683949
11.33,-0.990339933280828,-0.787486943013738,1.84917305192076,3.15139867293467,-5.03117473427716,0.466128916432908,-1.30597799028586,-0.441670527126237,-0.682857193554375,1.8383737687182,-5.56821201266821,0.995420767878698,-0.704703558833449,-0.188521174753781,-0.129936529678487,-0.427097608981335,0.228143472056827,0.980425223693686,-0.882766572672284,-0.204883686124009,-0.110736822378726,1.82521647673916,0.138084003453628,0.162660887713059
11.335,-1.03466084774628,-0.858319254196988,1.78086887052512,3.09574474082562,-5.13548293385983,0.361513772230351,-1.33026331192755,-0.410019873940336,-0.692118317154477,2.07878634043052,-5.58560473560826,0.926016670915377,-0.695907863070807,-0.195172136436034,-0.0997314102682028,-0.472093485768846,0.175214076774076,0.933014289477856,-0.897424394335355,-0.207702414657206,-0.0971472636997901,1.88799762271411,0.130758100637735,0.165518977782261
11.34,-1.05347635896277,-0.916772314901044,1.72124957826413,3.07134061283586,-5.18852967003099,0.258010255090578,-1.34650494778443,-0.390347367774572,-0.713060798232494,2.3089595240807,-5.60084720992805,0.869453838986326,-0.683618844279309,-0.204065600145789,-0.075217569014534,-0.501195110138513,0.128783454513651,0.870721310626252,-0.898834793514326,-0.211274695276428,-0.0886371976705518,1.95703879288987,0.109666438418595,0.178408275452035
11.345,-1.08874844022871,-0.999097804061773,1.64127937717937,3.04201333700179,-5.22210628808976,0.0739899603062292,-1.36650731784333,-0.352373125399781,-0.746352100086505,2.55875678762003,-5.60475543049062,0.806521630537539,-0.671259202768007,-0.200953081980073,-0.0678219808616576,-0.538536449867677,0.08933473628454,0.816602235493959,-0.894543215457149,-0.212969567901062,-0.082189552516528,1.98444885500601,0.0898658558265728,0.191076299582677
11.35,-1.13227676091475,-1.07814449638275,1.565122022248,3.01279852152195,-5.22508484280133,-0.180425319399841,-1.39660966409202,-0.281508310314367,-0.759042905132661,2.86343032618014,-5.59605087856883,0.74931589007962,-0.649585739404051,-0.174883320066503,-0.0606588427027929,-0.655522811320582,0.0560619393364859,0.65102750163715,-0.896266822213718,-0.200523677535467,-0.0961837892470347,1.92251575114579,0.0170681095376466,0.182301295759556
11.355,-1.16909792688467,-1.14293654151901,1.47787782302904,2.97538672007514,-5.18069550385145,-0.51544965912613,-1.40718533546244,-0.244183365101607,-0.792005882707759,3.12861395461226,-5.58127366238109,0.691633630411971,-0.653405785373179,-0.158273920277168,-0.0319413707546194,-0.729962919468818,0.0394546966510928,0.555479763316981,-0.876068223806264,-0.19064356813812,-0.0982561326697136,1.78686581157302,-0.0824867358540741,0.169151402179555
11.36,-1.21456561443359,-1.21630525629875,1.33496762834348,2.92249669416885,-5.11532959235789,-0.914970557057164,-1.40117397161276,-0.215190248924248,-0.82183995958313,3.36413581183295,-5.54061219155448,0.671463723005569,-0.667532909608045,-0.137385646501821,0.029291140803316,-0.851463092578537,0.0125090510428314,0.430773134455802,-0.864336668382309,-0.201738190910531,-0.0822164259673594,1.71427814237451,-0.120514773572154,0.152683705402104
11.365,-1.23324671509218,-1.23158845407815,1.24939686590712,2.85317703085067,-5.03053131966498,-1.23574650802708,-1.40273442608479,-0.189721713726481,-0.838404342263102,3.53162192371609,-5.50973180711491,0.660918124478111,-0.701475206257483,-0.090066941303426,0.118234452941879,-1.011953377231,-0.0300011073625151,0.30627516913879,-0.87942536460699,-0.229750932163567,-0.0584576144926783,1.78629854253467,-0.0775896209244958,0.170432427313341
11.37,-1.24013224600889,-1.22928197968165,1.14757918526553,2.72647874876156,-4.85876538391954,-1.77107215901391,-1.40230380040571,-0.135000122195681,-0.859627088106742,3.62357787514643,-5.47979563937422,0.657137322415934,-0.702275505248879,-0.0514898452236849,0.181773139324445,-1.12893585375096,-0.0553714930303868,0.25238109575427,-0.894585712350567,-0.236736708947496,-0.0437205926905175,1.92826743396739,-0.0031549983498073,0.218536754226503
11.375,-1.2992546690898,-1.22388963512578,1.12506436887553,2.65638418037671,-4.61080840671641,-2.33140359999147,-1.39923399161736,-0.0733973217334718,-0.889783677313605,3.63595392685662,-5.42260717161584,0.639339884331142,-0.735899330087466,0.0207652258685566,0.276385287135743,-1.39615479404269,-0.104480947727171,0.166793352907515,-0.926641911740389,-0.232295843178534,-0.0574023272616704,2.03822458989677,0.0669266887717003,0.270511000523342
11.38,-1.38759867061939,-1.21533162747327,1.15636047092013,2.67585358272638,-4.42131467428047,-2.71696603488858,-1.39583264834071,-0.0920554119225084,-0.934630935432011,3.55727472257472,-5.38113295221072,0.626912868455479,-0.74896034600614,0.0993784859595033,0.335544968916923,-1.71196117143104,-0.127462163503752,0.107885167050189,-0.945767739519769,-0.206203610391513,-0.076693709282837,2.04079841448933,0.090311649514155,0.306867768439381
11.385,-1.45366833885387,-1.20039628068036,1.17017031750245,2.76877409002749,-4.28409163450167,-3.00873912143802,-1.38526552572011,-0.15267294737529,-0.994101807732593,3.48807761701051,-5.29828326556594,0.614021448266576,-0.743852093785619,0.197800688390173,0.366628064483521,-2.09042336843788,-0.151820850962616,0.0594280762662734,-0.961635830620063,-0.190056263570057,-0.0968135223816566,1.966376744105,0.0391054808556254,0.31088537406314
11.39,-1.47914165240816,-1.15742131878968,1.14732848128079,2.89894054863903,-4.15317848099719,-3.29216381975121,-1.36505138952081,-0.265342299375452,-1.03529482485604,3.49616488583231,-5.16110666087587,0.602444178291381,-0.741144393356783,0.292440469022029,0.370362116598184,-2.4559284113255,-0.174611413586981,0.0133847294034464,-0.975516071897145,-0.174507223764249,-0.0904935554081848,1.88323751062984,-0.050050341651987,0.301085089723383
11.395,-1.45759614308241,-1.09357157046555,1.08352696061461,3.00302837450287,-4.01238539229043,-3.51552915941441,-1.35467920315525,-0.340722407456332,-1.01660734221084,3.64560347008956,-5.06089399921848,0.583082394023037,-0.737562774640531,0.371424369278759,0.36357730537701,-2.81937919503441,-0.186731712764421,-0.0481356443992977,-0.983277092980939,-0.171648563055847,-0.0616569616406575,1.85986820803494,-0.150662018850446,0.298724481632902
11.4,-1.44796547927221,-1.04373896454801,1.07003885788001,3.07956148907983,-3.83513285952553,-3.68454658449613,-1.35551783056714,-0.414018600237476,-0.96604351434016,3.90368979348186,-4.97310058107487,0.567646731886837,-0.729547303407924,0.447910006852214,0.338142580977157,-3.24120656043574,-0.192354447679363,-0.12838084753369,-0.992132191293539,-0.165881400742399,-0.0367160356132248,1.89945690277403,-0.227136409974466,0.312913552421785
11.405,-1.52285083328841,-1.02630536170285,1.1479627325244,3.18053398110906,-3.64331983816497,-3.79258223472577,-1.33906471339946,-0.467789351248951,-0.95362892751007,4.1848693552474,-4.91569565387282,0.580546279516904,-0.714900521505199,0.510612406687899,0.302716654961325,-3.65901448881997,-0.190306284640796,-0.207636367069897,-1.00105977019561,-0.142929441216843,-0.0114274640421422,1.93746848029195,-0.281519499783762,0.340999643295027
11.41,-1.66422945015675,-1.04244828514131,1.25768084376922,3.3191054059338,-3.52515807099184,-3.84084571634824,-1.28257079423638,-0.52319971873665,-1.00484593408888,4.43785375050137,-4.81893961762191,0.624602634986799,-0.702670808038203,0.548199233420571,0.269633256356917,-4.00324346847663,-0.178111128777631,-0.281112879469754,-1.00366941641637,-0.116971791319464,0.00638593212073447,1.92599313639371,-0.310228076413325,0.358582632783135
11.415,-1.76411837586469,-1.09036807497419,1.31176409695311,3.44525432317442,-3.51901745000089,-3.85973966151848,-1.21301827500794,-0.536175859109495,-1.04433341603108,4.76331244708534,-4.63420371907216,0.672552977235449,-0.692454550088755,0.577095930916257,0.234757076021042,-4.22745996837652,-0.158465855400251,-0.357873072839294,-1.00830983436264,-0.0946234829835372,0.0217596152671686,1.87681287727075,-0.31388792801706,0.371932897896091
11.42,-1.76718634073731,-1.13199837617905,1.24923931915625,3.52690613949953,-3.57335980759134,-3.87824868298332,-1.16587020842678,-0.508881521711559,-1.04732607882536,5.14692776733825,-4.43993148534124,0.703167167076049,-0.692855790177436,0.608209139232596,0.212111193753828,-4.28421991026562,-0.142382663481297,-0.407634073216271,-1.00944280939101,-0.0793502804173974,0.0277447516021205,1.81621159173179,-0.300912265604409,0.390081821232382
11.425,-1.6891121715609,-1.18705134413489,1.06100224366144,3.56462301378975,-3.60183098549591,-3.93811386225133,-1.14199092329482,-0.478329681610095,-1.01928167931852,5.4203528156872,-4.29409320946423,0.724015908233496,-0.696125390027378,0.621791252151272,0.20271406547134,-4.20315500739501,-0.13994237400019,-0.451867053186704,-1.01309000093376,-0.0707995246930226,0.0217142137854257,1.74517827130309,-0.288443981599701,0.413162756175315
11.43,-1.60315401130917,-1.26340243733406,0.82169798391804,3.55609205454879,-3.53972845339591,-4.0481762660044,-1.12678394312448,-0.431875602095791,-0.970296316238621,5.62782268984463,-4.11047288201046,0.750749098433479,-0.71691903623782,0.633659795758152,0.195791659531984,-3.96077142027209,-0.142588943243027,-0.488496494044898,-1.02188157489272,-0.0709843411299709,0.0161874991762446,1.68056262328074,-0.287950617095347,0.434988207191811
11.435,-1.57845838602938,-1.31134742387861,0.607879610678238,3.52874365497437,-3.37867074158134,-4.17954701437784,-1.09889915982608,-0.391290953553956,-0.939958633508538,5.73817934659899,-3.88943196256118,0.780782766778552,-0.744733997081605,0.662030846948397,0.206886769604041,-3.65544066347389,-0.139039957258124,-0.509859379200951,-1.03000875950319,-0.0736761417455771,0.0125696372150284,1.63385963420156,-0.279121760957429,0.453566031621955
11.44,-1.60491420565151,-1.29686907459378,0.438007929960441,3.4839691590042,-3.15148046705615,-4.31851185691905,-1.05742326918244,-0.339723633571216,-0.944960880371372,5.73532699198804,-3.7026587969437,0.792492301946777,-0.782274607790913,0.701449377685752,0.220000439580373,-3.26276293966114,-0.132738474652705,-0.515253704651864,-1.03409106007105,-0.0755996741967349,0.0113445356419066,1.60335090240518,-0.260943870176661,0.473883129487635
11.445,-1.65308417995102,-1.23258602040355,0.30455673670132,3.39453522577291,-2.87679538213368,-4.44874067240202,-1.0029650742052,-0.258714991804497,-0.949158783906633,5.66882121356832,-3.44201423637354,0.776171749703266,-0.847058565118288,0.756823491472482,0.225662190109623,-2.66613756648196,-0.112436043879669,-0.478908496015262,-1.04528777715769,-0.0715091350208307,0.00530511969755359,1.57504754044265,-0.21763506316338,0.492440672921826
11.45,-1.68366530641026,-1.17599602048318,0.237380882645,3.29434148049908,-2.66251692918623,-4.49972882353793,-0.945100415346693,-0.190888039025872,-0.930443343443326,5.4896607763094,-3.16862141195778,0.739258526665589,-0.902058881659217,0.803561672468403,0.22307907349314,-2.10977980941624,-0.082908353361437,-0.433433937465881,-1.04510224652712,-0.0668813262220739,-0.0031375174799859,1.54128316763865,-0.175519163063336,0.500565260395013
11.455,-1.69325071667227,-1.10397691749983,0.182772760354346,3.14356474301575,-2.40000468916686,-4.52280325163193,-0.900746905888081,-0.149629723833739,-0.911496652370693,5.184091651368,-2.88645617932545,0.676105640457617,-0.961975575888477,0.834612651683636,0.217566763983787,-1.62991941739296,-0.0388132866485988,-0.368153449452652,-1.05176116213242,-0.0690172271909553,-0.00434535679720134,1.52973712574488,-0.131025520260007,0.505685616621909
11.46,-1.66677381945953,-1.01489106086297,0.11532134833928,2.94199481302019,-2.08546993375016,-4.48569543789768,-0.88593710640141,-0.136340930005179,-0.897897462380972,4.73105778725586,-2.56117243716819,0.56625377491831,-1.01353790475968,0.836275987925994,0.20949963596011,-1.19571430212124,0.0166379965202284,-0.274577486437349,-1.05447201813263,-0.0689037002159181,-0.00511192711970767,1.53188043262558,-0.0896673029761123,0.523032755605369
11.465,-1.62654593489049,-0.917483617600549,0.0486763843364335,2.71916349920727,-1.7836595935863,-4.39353238698786,-0.888051232278229,-0.142257747439916,-0.896286262307897,4.27433282479852,-2.25988268474635,0.44287959022243,-1.0493394887127,0.82429121322288,0.203644078058765,-0.895426127262292,0.0596873987837619,-0.165816334738154,-1.05929798835509,-0.0740915195149034,-0.00564720663569997,1.53129283667222,-0.060005108746457,0.557194029630243
11.47,-1.61473687692229,-0.796011353328477,0.0244658865473196,2.3936285803095,-1.38798083817431,-4.20692650690712,-0.895679934511245,-0.173391108815229,-0.909255909945082,3.8098681825075,-1.95611758708387,0.310036428703735,-1.06699307655057,0.793979509019856,0.205852485225183,-0.671336563329917,0.0895702485131342,-0.0437782226319848,-1.05648235846916,-0.0744398084948003,-0.0117768303787408,1.53424982958073,-0.0420983595979566,0.596697211812848
11.475,-1.6467970998699,-0.696902329788431,0.0541852317639001,2.04972767480104,-1.02606904832422,-3.97103600994847,-0.898311360461323,-0.21649895656455,-0.942870999102611,3.36681772619428,-1.64278936858104,0.186827260985234,-1.06841857150783,0.740147504280407,0.208163185786445,-0.484064346122585,0.110157602572713,0.0977586100555764,-1.05108613078848,-0.0701770130371559,-0.0143026386783967,1.5323048275566,-0.0404123269178017,0.629281675037655
11.48,-1.67964887893068,-0.611339136127557,0.0985547610148515,1.6931900135047,-0.702907574905731,-3.67214091146901,-0.898984038393586,-0.269103869661142,-0.981092854448604,2.92578632323852,-1.29963919746759,0.0658578022059834,-1.06510559733645,0.677076374788053,0.227796927947725,-0.382685033697939,0.116864433128126,0.208091757512494,-1.05035139354038,-0.0648295484864934,-0.0095161869750405,1.51445154430925,-0.0629653361305,0.644637804848851
11.485,-1.66638549667049,-0.554521481168414,0.106103128071814,1.33420584974301,-0.432006538581643,-3.32274339977219,-0.893002508698111,-0.332112852232805,-0.99495632734945,2.53516322015549,-0.962273377480968,-0.0435341393048977,-1.05902191989044,0.595739774028337,0.225207381567508,-0.3628862450867,0.118997672218543,0.30088686497537,-1.04657184386748,-0.062467055118795,-0.00189127387957316,1.49745109014442,-0.111980854349624,0.655626407579874
11.49,-1.6095186792788,-0.540461542079024,0.0667539747887293,1.01886679932429,-0.165980241917597,-2.96153434767745,-0.893533119505288,-0.376511149792531,-1.00816810227381,2.24094953885934,-0.65097411918857,-0.146086265516738,-1.04979753652162,0.521483406569885,0.227047945762316,-0.436385823854601,0.137025300181107,0.368333365462136,-1.04474638077246,-0.0561570209371641,0.00426502371243781,1.48980921610227,-0.183275572082421,0.679389288961783
11.495,-1.56147032971281,-0.382564094517516,0.0443938812034613,0.70360245190807,0.172179104292229,-2.55643247985972,-0.901001522952275,-0.393867428951791,-1.0211554504887,2.01881106085223,-0.378475136665643,-0.231945154452271,-1.0440328019999,0.458044597157555,0.236874927235112,-0.583263729609198,0.166146330171413,0.40194187765814,-1.05787389630723,-0.0498798149183163,0.00563825102577921,1.48129452595104,-0.280942026909194,0.70008420695499
11.5,-1.62228633197961,0.268383293441991,0.146185022666423,-0.179272813851833,0.598920857990301,-2.21262942920807,-0.899309080669479,-0.332312410252475,-1.04690722439338,1.85690113074427,-0.0853536635790673,-0.298050666380128,-1.03526045724162,0.415561107094065,0.237280185708222,-0.717312192298605,0.202159113108886,0.421834350437296,-1.06346072474375,-0.031416133647068,0.00963584077740734,1.46418480846488,-0.387366406666342,0.716179604057823
11.505,-1.999329145265,0.596033376508558,0.433392948488853,-2.09158925553594,0.963582084915737,-2.09736391685054,-0.873677619797887,-0.0258197020994362,-1.15543985629405,1.83186003491289,0.221774357960568,-0.294276607335709,-1.02211472400172,0.395586664965749,0.202483080624908,-0.798187422461995,0.255349317883859,0.44479866596434,-1.07537319195783,-0.0221664381188919,0.0156314211538851,1.42118221430592,-0.491803588298711,0.730878625752151
11.51,-2.4866559754063,-1.34937650356981,0.819279632979558,-3.87791320613077,0.858099560079098,-2.3404324749817,-0.817161701019171,0.258195955301335,-1.26174291378802,1.84662834388376,0.452124556777471,-0.222877363017174,-1.01434368400343,0.417951983331009,0.171005042482082,-0.774397963420808,0.29643288909832,0.477520987254731,-1.08324305869895,-0.011187333060839,0.0317437692402092,1.35587946653244,-0.598335775902806,0.749375819196902
11.515,-2.57895067410742,-1.31560197423369,0.992166173738973,-3.26806394274938,0.568698955015357,-2.21046532283554,-0.795152625529564,0.188840406313226,-1.38715140343195,1.65534582607562,0.80124293723424,-0.241985886648882,-1.00589268682735,0.473433435208441,0.129383663840545,-0.673316511100597,0.346380774364416,0.509792888922856,-1.084171104775,0.00119886730425509,0.0416254821431921,1.30774722950414,-0.66799628353724,0.776004796264679
11.52,-2.34189731321676,-0.16170052860308,0.840679420042131,-2.50688392139696,0.243597816446919,-1.81450561891589,-0.861033027049583,0.129486960278304,-1.19259983011902,1.49774031623383,1.15350074650341,-0.392092771347031,-1.00240138620482,0.547215354968892,0.0748033558400829,-0.558151427601722,0.401359839050092,0.554472852530178,-1.09451645281453,0.00801692309707376,0.0565671172966211,1.24166971627507,-0.69724416387182,0.798143751391407
11.525,-1.56923760824487,1.16938184739051,0.459991257558185,-2.830184123097,-0.248386769429865,-1.31641983571232,-1.02357048029357,0.196502217992584,-0.883184056711469,1.46108397655557,1.37939114952737,-0.486278240201943,-1.01966791431922,0.658736522199764,0.0179281036946676,-0.466032373248724,0.451290343344558,0.582949844002726,-1.09885811688228,0.011357461603637,0.0732881292910823,1.16617793697976,-0.685607620682892,0.819956896956638
11.53,-1.07566775566267,1.46862854178619,0.329006589929357,-3.45941369619535,-0.105982879426614,-0.875946619578726,-1.13871501837549,0.190058712865751,-0.623474121964609,1.39009128660482,1.48300421745886,-0.528667557035849,-1.04203310589195,0.706261514811216,-0.00933961648550294,-0.447864758681059,0.487105304742865,0.593941635983942,-1.10839324763794,0.00708400041781611,0.0662651168096487,1.10407247626693,-0.671271667011916,0.83102494495375
11.535,-0.803056120010786,1.53087674614185,0.806558230201822,-4.93556407823405,0.410436426892213,-0.0759571674655342,-1.24393166584102,0.292666298662439,-0.397023672414535,0.999742874542976,1.57287227731086,-0.531268110342456,-1.07566201183597,0.729007048071133,-0.0531157185003196,-0.522792475569768,0.533947994614925,0.570640498399233,-1.12859574011752,0.0089957972634512,0.067061719660619,1.04921450143193,-0.615075980893495,0.836648225784302
11.54,-0.72604263191571,0.821964784771774,1.25163095434957,-5.6787652387898,0.517598454495649,0.322622932018318,-1.27681264011625,0.339114166773282,-0.228485512616371,0.575280491213343,1.62157163799592,-0.502619671455565,-1.10603281728187,0.689117308218067,-0.0910409629412955,-0.693620910260899,0.563428287813498,0.525560462396543,-1.15209237182004,0.0116971728200531,0.0632814086176315,0.984554294079155,-0.539933988386586,0.836648225784302
11.545,-0.540463312231824,-0.68493498939735,1.96235271349109,-5.61138929274977,0.221107620707732,0.562777789344743,-1.28888754906136,0.306153473046605,0.0548101387105774,-0.210118166006542,1.67900199624796,-0.460632378582336,-1.13853597511012,0.564319297613169,-0.111178407984235,-0.938650743568534,0.581796810894011,0.39001262755402,-1.16519830004268,0.0209547009016061,0.0539805982345126,0.955354166611381,-0.482848406791688,0.832405013058497
11.55,-0.153969371048363,-1.86229266572608,2.21587544228469,-3.87481023689537,-0.716702371024942,0.317850379245779,-1.3328613377034,0.187035277707074,0.294753114365094,-0.883875286076828,1.63678368235233,-0.503396040572178,-1.16411150470415,0.4061411379174,-0.126669331691597,-1.11945224034757,0.57078859360971,0.189540855385823,-1.17818253660881,0.0179659340685921,0.0419958102604221,0.96169391684497,-0.441136616190666,0.816368983113735
11.555,0.0808495034451092,-1.30808551887058,1.8014924302413,-2.34222129831718,-1.1521640510227,-0.084668373684398,-1.38663361426606,0.154139202294581,0.360375681473274,-1.36645301827101,1.4630385927603,-0.576756193308153,-1.19185996785011,0.235479766675862,-0.15768798175998,-1.24199174806998,0.536175048214481,-0.0549979793197765,-1.18517797220634,0.0199552019200105,0.0395312853992118,0.992594855074808,-0.433534245880276,0.804135541566762
11.56,-0.0625246177188117,0.132150986560064,1.33369513013378,-1.26462711853388,-1.2242607534849,-0.449174201276801,-1.40600845540104,0.211849141467858,0.246017546261106,-1.64143964634579,1.20508565535676,-0.60184730387656,-1.23289309664308,0.0754249722828785,-0.213064511242081,-1.3255062557009,0.478620274168918,-0.336929454317798,-1.20188578305694,0.028045080350486,0.0328510390563452,1.03564531184693,-0.452087951933812,0.793888926506042
11.565,-0.454956112327563,1.04345553298303,0.987488862169667,-1.02488768635008,-1.03944671348596,-0.497551476463975,-1.40309316100097,0.334709410509741,-0.00444346651166101,-1.47575685381207,1.05384993838291,-0.54743089097659,-1.26250865927176,-0.036872606899512,-0.274985962647318,-1.34392029841621,0.427600293191374,-0.559784546066841,-1.21718604027661,0.0382105000866276,0.0272310981031651,1.05569327762082,-0.495355260728657,0.787923404815215
11.57,-0.713150431529232,0.73982396285427,0.862834969749702,-1.19882419455448,-0.756119501916093,-0.432285757253407,-1.43655844995545,0.346168364796985,-0.172913898068204,-1.07445153844448,0.996178476764299,-0.438357692179343,-1.32418961070053,-0.0959679945566272,-0.361642008853699,-1.30857440991955,0.383335715078393,-0.813682501336369,-1.23928095858995,0.0454463097634102,0.0105205175925331,1.02712651693394,-0.539337176598653,0.786179021444671
11.575,-0.789104321273539,0.202055427792701,0.910055550581881,-1.20755509503282,-0.545541519151855,-0.393577145114555,-1.47499755316354,0.199877507797669,-0.284461958686989,-0.716350685153086,0.993291033576478,-0.339545794445135,-1.39612144109956,-0.0938625723780469,-0.419710221270674,-1.22874132861118,0.34706564043646,-0.979978558891681,-1.25809753238779,0.0489780633008059,-0.0187144935315699,0.954887301274165,-0.571657553457469,0.788050778988728
11.58,-0.701597850948272,-0.323595402148597,0.977429255331629,-0.907586503153139,-0.464039603569483,-0.367451328073368,-1.48261874102202,-0.0515225284422673,-0.354763171048088,-0.328835670471872,1.07241917743219,-0.321752065226115,-1.45962147815799,-0.0479049666076673,-0.429162025150461,-1.11881146183081,0.320957560680744,-1.03519119049512,-1.26243331173639,0.0455298676855833,-0.0546249116320736,0.839581187695795,-0.589451533945432,0.788264373786135
11.585,-0.58026539320872,-0.319147624456366,0.957361858331776,-0.606164848743435,-0.403134867536627,-0.325502136343258,-1.41525533740853,-0.302122257707058,-0.372613525519638,0.0754660176457926,1.1483490357419,-0.367848280465282,-1.47099175236158,0.00286166213084126,-0.373524656335805,-1.04632977377211,0.286896409290683,-0.986473980938696,-1.24925238783826,0.0304299127771456,-0.0766463538780641,0.730761474772905,-0.574646452396921,0.781056908910376
11.59,-0.520965856530842,-0.00847269618931747,0.894462153614578,-0.370103886077185,-0.342410812078816,-0.216653619383134,-1.2312230684132,-0.365535563358218,-0.314155277916133,0.649026085963865,1.21065279487195,-0.3973777894202,-1.39957652811986,0.0277148608907225,-0.271285652674368,-1.10140520787172,0.223645514135851,-0.839573757559127,-1.2219801967142,-0.000907450745347167,-0.079869697762771,0.709836692325615,-0.477727374965715,0.766370494688654
11.595,-0.535558583269321,0.080738240678478,0.88489955414612,-0.250291411569236,-0.320648340345309,-0.13410973833692,-1.02031813649605,-0.199457786824705,-0.261045663664052,1.03536848806337,1.23772176013718,-0.302887333515589,-1.31707319112254,0.0197486321444028,-0.196560864545344,-1.27525818688019,0.160702538730659,-0.683541554252553,-1.18023485894977,-0.0334352481787735,-0.106083467137626,0.770765839383627,-0.344105523316011,0.749178229288582
11.6,-0.505698409137198,0.131543356833058,0.828350631843318,-0.196063855975824,-0.283326644475406,-0.0844449569978667,-0.863881473241547,0.058782398394716,-0.223648225367684,1.08266415689973,1.23567478612574,-0.0923249329223793,-1.19704008900994,0.00218394076168836,-0.0844377590164162,-1.65858917341697,0.050321863418379,-0.449163539721428,-1.13977250610581,-0.0442019201910301,-0.14606528544568,0.81308872710397,-0.223903110405375,0.686786651143898
11.605,-0.513197803654915,0.174178274922107,0.844705037839439,-0.140219302694684,-0.277930175942074,-0.0687785865456406,-0.82051894252361,0.224515590601166,-0.21400556837315,0.907919209115647,1.20398444541695,0.0375133044125187,-1.12377285056365,-0.000274899214543007,-0.0207897730801755,-1.78049946784972,-0.0169308881063718,-0.342321481471285,-1.08320767378842,-0.0476408265245146,-0.204849222987762,0.824969531027729,-0.163861406359937,0.610366456284092
11.61,-0.486734746797213,0.238414689345277,0.857902113389161,-0.0808839630459827,-0.284972914665865,-0.0705070185981434,-0.790564493104134,0.442307111184772,-0.190473845514749,0.627724710537523,1.16686871152753,0.0868446733217528,-1.0027093476489,0.0111431276801646,0.0266844860868963,-1.63992019437978,-0.0517481676543758,-0.306286532446692,-1.01495939694843,-0.0643894476753368,-0.258356654284107,0.856039018789797,-0.110221665955484,0.487234431973568
11.615,-0.432862246793508,0.255207599296832,0.861510663741997,-0.0674903954179734,-0.300754655455732,-0.0977769033155111,-0.778001545441457,0.571546436342726,-0.166077324099555,0.452516937562842,1.10519878420201,0.0178776580688615,-0.870667160280802,0.0238463817980243,0.0310266421733345,-1.37292932878164,-0.0293356729451393,-0.366837327633549,-0.983629753557339,-0.0802284515008603,-0.28579649576683,0.956305101368302,-0.103462159865429,0.409500091326295
11.62,-0.437244244888368,0.265600560888504,0.87419672418479,-0.0548205477584442,-0.306762521376748,-0.120404269040952,-0.768610475565591,0.618829961655715,-0.151231597613472,0.200404889974676,1.03378460548556,-0.0998942362863084,-0.69931298122619,0.0135769983901987,-0.00353271388869555,-1.10523727442881,0.0786801344582332,-0.500050760325236,-0.953222695255798,-0.0926078079656289,-0.279464044598234,1.1211029991599,-0.128373038790756,0.344743950955754
11.625,-0.446623355746546,0.269553541700662,0.84962547745099,-0.0428405128775908,-0.310948243129004,-0.156149912575993,-0.790854295305393,0.570934918728842,-0.165472183782079,-0.0334244664197428,0.98093576921199,-0.163757937744628,-0.600964391736347,-0.0095041204721132,-0.0237780532257802,-1.14245290366881,0.210733903359576,-0.572524240216388,-0.934937003091469,-0.105457590897525,-0.255267868062286,1.32891897177337,-0.164182859691038,0.290526145822565
11.63,-0.460058839067705,0.281494788052398,0.843945958775957,-0.0490001284657398,-0.324060618877411,-0.186602967024994,-0.843988108354665,0.472045870750368,-0.179891936537126,-0.231520631502518,0.928998566974857,-0.192373829070763,-0.54337772395531,-0.0613523049153446,-0.029220118150567,-1.39690655873214,0.367083255406192,-0.612002141261866,-0.915226472987624,-0.103098520859213,-0.222844085466932,1.46550526329664,-0.184573926417672,0.25965473069889
11.635,-0.436598714761767,0.263101616697556,0.853123695781272,-0.0532835183909275,-0.327460025840287,-0.209374703473843,-0.908364514033072,0.356389922548572,-0.187400672394875,-0.282002561234021,0.885117052367673,-0.198629723212892,-0.558997724131047,-0.129472982289798,-0.0104543641406845,-1.83143073118386,0.50153879099643,-0.600999765373359,-0.8762026596883,-0.0944473433898917,-0.172992182474716,1.58076078012618,-0.196174681853272,0.239764549349694
11.64,-0.424604040294703,0.216887773186044,0.865663545099084,-0.034236517584083,-0.331348738948687,-0.229893836343529,-0.954145192623003,0.245360108103594,-0.195142262253669,-0.203334074941054,0.852500369688974,-0.187248757963195,-0.655047957274441,-0.200916369164994,0.04732734210901,-2.29282716129831,0.564738414156171,-0.560435395132764,-0.826987420960942,-0.0770592081883896,-0.138685557209526,1.59549000633946,-0.183606476587034,0.268293030999668
11.645,-0.428778027388562,0.215888074318807,0.874286444758895,-0.0172793961345851,-0.32746582653444,-0.24347185262865,-0.97650249980551,0.188290579370771,-0.205778614224941,-0.0375813173373613,0.830749229291214,-0.155768446645832,-0.781994683456335,-0.251147705278628,0.114154175969901,-2.64924863660817,0.5763638578457,-0.515968837957447,-0.779080258416389,-0.0524318600337036,-0.113963603558316,1.56727768922266,-0.154673084956362,0.322091561628863
11.65,-0.42713694911027,0.238820560130778,0.886177556976841,0.00434974910802178,-0.322455080311332,-0.259544373201331,-0.986992211824293,0.158350686889409,-0.21319784035516,0.295082945571151,0.802319010702069,-0.106203892864483,-0.920608883058041,-0.245772325985695,0.1850226114899,-2.80073927869049,0.534672991318915,-0.465643924502645,-0.733599262732409,-0.0248404970634847,-0.0989455470896698,1.51218921869216,-0.113252755897335,0.374870446530352
11.655,-0.421481682287953,0.245529889157447,0.883711739218342,0.0041720319566332,-0.308607987924542,-0.278971917287971,-0.985403074831121,0.166490025090971,-0.218651456631697,0.553871485748073,0.772273393784187,-0.0679417757463105,-1.0233696898277,-0.189884141919362,0.256825309749588,-2.70510404396242,0.480563464082488,-0.421865961472846,-0.705276579719282,0.0135362059777761,-0.0958959437572114,1.43698682037252,-0.0591716229763184,0.398252484920434
11.66,-0.418775489171574,0.242462336633621,0.879863198995945,0.0120968586706859,-0.300758660139898,-0.291453480119983,-0.97802299569285,0.194352056319815,-0.224891797053511,0.857921691174893,0.73157113446072,-0.0198852366595287,-1.10326110405275,-0.113569918249427,0.33009255232562,-2.42051070551462,0.423286539543913,-0.402127742747976,-0.700330713350871,0.0457891902770377,-0.107685207746131,1.39655700838968,-0.021393919560717,0.394728705039587
11.665,-0.421382460793891,0.239180669074646,0.874375257647191,0.0195469026635518,-0.291310320310456,-0.308502099555939,-0.962777810163326,0.255277287227575,-0.228263555493941,1.06398135343751,0.691997418069458,0.0105927832986657,-1.17087653680414,-0.0271636933283543,0.402119392540948,-2.02248758194645,0.369714330510713,-0.408113932762286,-0.714500517264298,0.0790375165019278,-0.127014300371911,1.39186696555138,0.0467255686267217,0.372337111504754
11.67,-0.437339655771515,0.235441449245439,0.867680323761024,0.0174792576941666,-0.279741789300519,-0.308819593772131,-0.960737968568877,0.31644523149071,-0.235433725711239,1.13172087979348,0.663045994473296,0.0179885349172427,-1.2077645452736,0.0508595003410777,0.477505983330208,-1.59035423878106,0.329632698773974,-0.426329294801603,-0.739552798330492,0.0971570972092005,-0.146564782541501,1.41666190060169,0.0973601861096876,0.355701418324256
11.675,-0.451028446602349,0.242646729953127,0.857758856642384,0.00732713549746038,-0.263182705631091,-0.293042012220591,-0.96035088234046,0.373637292148919,-0.241487626552183,1.09952622864835,0.639796025216408,0.00935350455613257,-1.20961846565523,0.0907919837429721,0.516046717535883,-1.2908458526157,0.290097437209037,-0.452615673416764,-0.788981566769648,0.111349506067176,-0.164797217452721,1.49349725525916,0.149605674003537,0.341323615120695
11.68,-0.453274295229529,0.234036327629757,0.859345060373831,-0.00963660412468847,-0.247913125319124,-0.269800849279009,-0.972667811598095,0.422046999172693,-0.245462308508508,0.965049118355681,0.634767294238933,-0.0310447087330793,-1.18573544575804,0.0865312879039805,0.511172232120762,-1.15243430105521,0.258241634177684,-0.470956989027681,-0.866836599783605,0.124374575261568,-0.190098018652906,1.58570458472661,0.205392845441159,0.333439713955404
11.685,-0.449862087482519,0.215405332469982,0.858252502241112,-0.0256331524000302,-0.229237405960008,-0.246092323670881,-0.985711464979335,0.466854765346022,-0.242234904923007,0.701897031322803,0.633116773370347,-0.0883875431951772,-1.14947277933632,0.0526843760331725,0.478347962139119,-1.15470266741074,0.227338628020463,-0.479577791510022,-0.938588488279669,0.139382775364457,-0.217461358699742,1.66477953897113,0.254182390745936,0.329038905677454
11.69,-0.439295959143027,0.209029824836096,0.867912442428876,-0.0455068731461725,-0.207429161007075,-0.202007893996901,-1.00300479947664,0.481642193579169,-0.232064325599121,0.406943827696961,0.631026272156352,-0.156986539917998,-1.1062782325824,0.000941679200187836,0.425417362569043,-1.30763481529887,0.204462597417969,-0.48263351206894,-0.993807219728008,0.153790796993761,-0.240480598052422,1.72832951770951,0.296993656695037,0.33292736086464
11.695,-0.423961396206699,0.217854733627266,0.88301675914719,-0.052005073361707,-0.184606993113168,-0.167526483716327,-1.01412785367665,0.465128077728296,-0.233892148408778,0.155297530588443,0.620385125823216,-0.230071629628825,-1.07692167829047,-0.0501425732865495,0.381098485078556,-1.572896915698,0.195014528434636,-0.481227965777795,-1.03462698780852,0.1575855912625,-0.253949642739838,1.78605203760519,0.314721247135258,0.34009676469197
11.7,-0.4155623480174,0.220514632259341,0.887596852711397,-0.0522665344178677,-0.167412317111026,-0.161774337291718,-1.00927669537548,0.432580112902574,-0.241822457355175,0.00807239729201513,0.603141841576691,-0.271764334374109,-1.05855048425232,-0.0950872786678692,0.345189480706577,-1.83700734592413,0.197879748136382,-0.475169710715915,-1.06877356119911,0.162809064356092,-0.263715418313063,1.83314906054019,0.305378111712487,0.351559986221179
11.705,-0.40845782462922,0.240846487559312,0.883311951253541,-0.0377873650027763,-0.13868011982624,-0.152121562587329,-1.00480687718771,0.368685437409201,-0.249241904179881,-0.0850824785275369,0.574115043057052,-0.313622602224207,-1.04485367955347,-0.113278922375899,0.306556043222519,-2.06885858627177,0.205154794996285,-0.449431830948257,-1.08928705500977,0.172889155485565,-0.273379894884295,1.87289849090639,0.268654272442925,0.380920318673896
11.71,-0.417784441301023,0.228775487616222,0.876710571671135,-0.0453130269443981,-0.125059665825204,-0.155907312515194,-0.977157223753733,0.323596308370613,-0.260508472973158,-0.0482072989087314,0.530013955593423,-0.325807601213455,-1.03997407322243,-0.110485504221863,0.295050383843344,-2.13571157801323,0.226565979718515,-0.417924934908717,-1.09663235900536,0.181002440572597,-0.264932185932585,1.88895692112786,0.222753762943015,0.393585403845553
11.715,-0.416253462566164,0.237690464505577,0.874474611393975,-0.0376061983406544,-0.116048913804847,-0.160204663510596,-0.95202225450521,0.280956354001767,-0.273101498805833,0.0581325480705586,0.502834663979331,-0.321397534290966,-1.0319059765994,-0.0821604581808265,0.293544688694696,-2.05631820759689,0.25688421488573,-0.36076249118598,-1.09570455917085,0.195638207154189,-0.254352856412016,1.88292311819141,0.1696602007892,0.40618052643899
11.72,-0.42087293602756,0.230720876639995,0.879751282959802,-0.034733944714566,-0.115123074988108,-0.169123059008815,-0.938358172774788,0.262708932209008,-0.277550170166759,0.22041471652619,0.464979026042885,-0.296663181960172,-1.02253165420829,-0.0474378784767694,0.303775856433822,-1.91309166273759,0.28917428444326,-0.314446073600583,-1.09727714304736,0.213027791204724,-0.232337603230416,1.85957078405154,0.0907801144859451,0.402852808111254
11.725,-0.417639704681677,0.235830694112987,0.878182801001822,-0.0274926333544631,-0.106259013410434,-0.177114698505803,-0.943168988672923,0.269816956568497,-0.2713014718809,0.371242602420013,0.42312040417274,-0.264858181167445,-1.01219319765711,-0.0156520914906594,0.318068335335577,-1.70456696053337,0.333811418388223,-0.264742188801553,-1.10033545166147,0.218576049883334,-0.218457360324361,1.83243829079896,0.0391423686172251,0.39043879512547
11.73,-0.410157088760548,0.23657700725448,0.876526678171863,-0.0259710925188828,-0.0971735687647239,-0.180157780176964,-0.953185045110469,0.286183197702566,-0.265682600984057,0.46753001510609,0.39144244457759,-0.244366380540859,-1.00777755039625,0.000880605203150743,0.32375217522909,-1.5375136799403,0.371995470224831,-0.237330262214435,-1.1021142518315,0.227265500081966,-0.208110260684989,1.80699979147941,0.000623509120109758,0.365837203335681
11.735,-0.407223512458094,0.231259714212621,0.878542127329719,-0.0266109481453896,-0.0797705108251566,-0.181309265602646,-0.957144140099142,0.311334316219631,-0.265181768694915,0.516279793660205,0.352951411920719,-0.232614749437311,-1.00222944833124,-0.00299250423438367,0.318294185340358,-1.43410388852469,0.401460825794475,-0.228355532611835,-1.09537673305495,0.233430479189838,-0.209087887715029,1.79830444761351,-0.0225168730273727,0.344902131804976
11.74,-0.41518845975293,0.230057809820304,0.879015369949158,-0.0231915734867984,-0.0644771870044138,-0.184448715685359,-0.96317346341034,0.338160406153027,-0.269502523927278,0.505330800843916,0.3136357489999,-0.228254164603446,-1.0004475398332,-0.0246990809946834,0.297821834664656,-1.40483800436498,0.425642609621787,-0.233272163054969,-1.09465395001962,0.226639219552803,-0.215670648381828,1.80704056680174,-0.0337042268696883,0.32617277102304
11.745,-0.417849853694711,0.223486411405902,0.881066988939256,-0.0112983595105562,-0.0494364972555598,-0.182685508161411,-0.970579069344109,0.344546892792295,-0.275482418311459,0.457693920889983,0.285754364287504,-0.237195484803799,-1.00591483645755,-0.0477589504481683,0.265859659724823,-1.43396085260489,0.434050858020782,-0.25356374123864,-1.09269160961103,0.216137412559502,-0.218672858037937,1.81810902542681,-0.05122965283485,0.310539201879968
11.75,-0.415781088498708,0.213268361644496,0.882588818685188,-0.0150050211846695,-0.035740605506249,-0.178572588465278,-0.980426286390265,0.338526110852289,-0.284655833828742,0.398723031692407,0.262516793636655,-0.253047520259798,-1.01790739036305,-0.0633038140342199,0.225349379178062,-1.50469526274576,0.429835321898696,-0.282038328255537,-1.08838490315008,0.211013244187047,-0.212167090733054,1.82595317851038,-0.0808125019669133,0.301096614877818
11.755,-0.41195665953646,0.205425388035145,0.879157181000659,-0.0158524431866419,-0.0134375582706678,-0.162209867345699,-0.982970937684184,0.322209318065659,-0.285595297974162,0.352830173509004,0.238509031570371,-0.270328422982062,-1.03305575864422,-0.0684986284810964,0.191757615944768,-1.56643472154068,0.414497188832537,-0.297228359600121,-1.08383658949691,0.20925067734594,-0.20291220720272,1.83200241773539,-0.121412668579436,0.294033635620958
11.76,-0.419546057900623,0.208827760329674,0.877200612841213,-0.00155732989617316,-0.0170257262851202,-0.161880528720545,-0.970714543627831,0.288090635568352,-0.293653998943053,0.318985072623636,0.215267918066049,-0.288018465058901,-1.04654859952093,-0.0626543920320063,0.167815942915749,-1.61100644167819,0.400390939097623,-0.312445878343415,-1.07358108477381,0.209408242079824,-0.179952844172489,1.84157404592613,-0.187224606348093,0.283220618963242
11.765,-0.420737354713838,0.20312001638317,0.880310051945601,0.00792596977920757,-0.00328759522758956,-0.151734479710502,-0.968822434445581,0.272348718672379,-0.29224868098426,0.311117986703178,0.19321445240695,-0.289986573782994,-1.05892770753721,-0.0537081527301446,0.143383962913473,-1.63298467755542,0.38344268083065,-0.324217518786791,-1.0637277063027,0.212204973403307,-0.159129499097231,1.84977905095862,-0.218872601361365,0.283220618963242
11.77,-0.417628509272833,0.200435829098327,0.877047720794142,0.0259649153431237,-0.00317578569635971,-0.147745200362578,-0.960251676292184,0.270004830118365,-0.29427501096559,0.306983202147993,0.162629798404145,-0.29404354095459,-1.06106331035392,-0.033482778651373,0.126290246648419,-1.63218899052171,0.365840800152592,-0.335191339254379,-1.04290130512992,0.207161587812213,-0.138341416809674,1.86100670703922,-0.269239588511429,0.269893405315002
11.775,-0.418819912099922,0.204663271339857,0.877110901220026,0.0360713682608854,0.00401127172147289,-0.139783844351768,-0.955896301320674,0.279157497669974,-0.288638089352587,0.315918177854692,0.137887615461722,-0.296457115804076,-1.0572487610478,-0.015667540840438,0.121199969916965,-1.63719514964569,0.354151164126833,-0.336378373196721,-1.02200881248786,0.206635598815417,-0.129457347955696,1.86999686569667,-0.299963619539157,0.256495989551289
11.78,-0.418437481015944,0.210974402431095,0.872543861756745,0.0428058897738331,0.0104485324689997,-0.138311660142118,-0.957184971315711,0.285420526553978,-0.282293194828518,0.338890851172584,0.116091908961201,-0.303622336478254,-1.04646814201067,-0.00327448194663457,0.118869135629971,-1.64110494284467,0.338814167220416,-0.338884136427671,-0.994610745991986,0.200282047285694,-0.123254839759324,1.88975636319523,-0.317401121447993,0.235972317848629
11.785,-0.418270332086627,0.213841647975784,0.875145810693277,0.0589152933487999,0.0143449232573207,-0.13489705324173,-0.958646380578968,0.285691976663522,-0.275732713532275,0.36758166272265,0.0972212889415891,-0.306260496377945,-1.03934190993696,-0.0035161065059555,0.117718147324594,-1.65260127324751,0.331751992542625,-0.337779072720593,-0.975695837019331,0.18928211050047,-0.11583377964647,1.91728161871096,-0.319706053476535,0.215512553470587
11.79,-0.413344947168702,0.219591213188672,0.873376516041002,0.0676880780333069,0.013635847357876,-0.137492809467292,-0.951607355933608,0.291466550243149,-0.269002973090944,0.394804324827005,0.076465480253261,-0.305449468436417,-1.03730893330854,-0.0150677697018588,0.120931996292915,-1.66579937788156,0.329376850515651,-0.348965665850882,-0.955234530448646,0.172893378383736,-0.115056729513034,1.95758413713872,-0.308155996177166,0.19265784282122
11.795,-0.411870527316432,0.228442066308114,0.873769002584627,0.0826067530519542,0.0140331648450114,-0.146365666487123,-0.94826028161209,0.302425535706342,-0.262739490240754,0.420876193757445,0.049458159065031,-0.304671791377418,-1.03082434839887,-0.0272620944728611,0.126489982050948,-1.69265643721693,0.319016148731428,-0.364058129873473,-0.945356528419998,0.165097239141114,-0.113475368715655,1.99777377243653,-0.293713260118648,0.171533679438959
11.8,-0.410160782711209,0.235724035260733,0.87137551017503,0.0896539703588163,0.00995400075459498,-0.153222471475601,-0.942438173893182,0.308038163491031,-0.255490347217426,0.467183920047707,0.0196074615386678,-0.306714675138575,-1.02609101356952,-0.0372330006971584,0.127504571307188,-1.73233048905587,0.310151706207291,-0.380101961922041,-0.935801723887457,0.154605875602181,-0.103178193051518,2.01808794539321,-0.274927987667239,0.154561563676806
11.805,-0.410894444271922,0.235479872433469,0.87176595851779,0.0808981731534004,0.0117147972125665,-0.155800340308876,-0.942673819665085,0.304962260903356,-0.24756402160372,0.50058300386195,-0.00565129030243649,-0.308412562732815,-1.01804409008381,-0.0428141742400771,0.128090589930296,-1.79342081441854,0.300661238569847,-0.387799165723645,-0.933777436820719,0.144479309105767,-0.0912671992781455,2.03759226987186,-0.24766668020319,0.142358160119818
11.81,-0.412242274586942,0.236345326748738,0.871292740851754,0.0822272560451909,0.00847524797033761,-0.16198911497086,-0.938730465328416,0.309162744325091,-0.242459612471914,0.512407879076674,-0.0224541608657944,-0.309288392474819,-1.01158803659591,-0.0459353305455465,0.127911116791041,-1.87831151491273,0.29355600476265,-0.390167564153671,-0.940569749751964,0.135421370876681,-0.0763742033096488,2.07544965123307,-0.20899082294899,0.133622885187978
11.815,-0.410402458826185,0.230370879833751,0.86942684042018,0.0850412169269896,0.00882431849571158,-0.165917391430767,-0.933495851815319,0.311924487853002,-0.238780248673111,0.508421164323789,-0.0336197618041353,-0.314473950165455,-1.00800343711036,-0.0498022655993553,0.124953493654961,-1.95470150275421,0.288080882393276,-0.369049248643378,-0.944040078934866,0.129267559845697,-0.0725663584124622,2.1275977120243,-0.163722632693674,0.137538815153568
11.82,-0.419084669844699,0.235616265298761,0.867312524801483,0.0914925331147506,-0.00187302226981509,-0.17122718983445,-0.936485729551148,0.314078851409786,-0.240351508660939,0.508742292070233,-0.049868830603389,-0.322835313388797,-1.00905362289846,-0.0553258404433841,0.126483844986137,-2.03037023271686,0.285004138946533,-0.341168273312659,-0.944575743204642,0.124990103928559,-0.0801195260917762,2.18175013808721,-0.120989293226426,0.147586139862514
11.825,-0.415133558189849,0.233717913605395,0.863504072146056,0.0817816528917011,0.00122988456994217,-0.166566807945352,-0.923157659664798,0.319270118839579,-0.234923358718686,0.521153261373188,-0.059760771163705,-0.338112819137527,-0.995104303478375,-0.0624724791807195,0.13695044571274,-2.10404178508383,0.279969307705678,-0.321308532133453,-0.942510057088938,0.126872410072735,-0.0776972790166017,2.21023384662401,-0.0925377731265196,0.153697924930012
11.83,-0.422279998216154,0.232822179374142,0.857252086629039,0.0786470168246921,-0.00937185465071922,-0.176695209714836,-0.916882868700091,0.312332345856599,-0.23441599033688,0.51941716300936,-0.0627108579791835,-0.339792823736343,-0.990466653074198,-0.0654768089863507,0.151009242623888,-2.14859703848056,0.276452273130417,-0.310533836236966,-0.93299149851126,0.130227185662862,-0.0754947660151169,2.21705799809262,-0.0754136584131381,0.160526406472976
11.835,-0.42163137023277,0.238445780612444,0.852946730718716,0.079676479101181,-0.0205159912831675,-0.176558497592803,-0.901627060060294,0.313546665709104,-0.219874173015784,0.490975767680872,-0.0691964750968105,-0.344133019447327,-0.982420229399288,-0.0649625885392169,0.166744595312538,-2.19825076385359,0.276320180424446,-0.307653585229892,-0.926027404741119,0.130849839582154,-0.0725691759649831,2.20847399984431,-0.0601291705005913,0.169603019952774
11.84,-0.419508602375505,0.232341117457518,0.863302348065369,0.0801156238806905,-0.0309497031468034,-0.202185998880581,-0.896329363287557,0.305751178032449,-0.215235287792743,0.456927988607527,-0.0775973817945096,-0.34489412801162,-0.974319879611451,-0.0674258017204358,0.175718761594656,-2.22691652700301,0.275603500077748,-0.301832649042583,-0.915121416007346,0.131318823759027,-0.0819678279015691,2.20043745216058,-0.055904035641222,0.170225335943455
11.845,-0.414061780223195,0.223969485497566,0.863421972266807,0.0872860459660768,-0.0425260115896859,-0.210583130156945,-0.900538412748321,0.280510560642332,-0.217319488284744,0.465588158999126,-0.0936789697207018,-0.349871826005531,-0.969544880198386,-0.0597275445944475,0.176583782398208,-2.26942793368122,0.280231525300469,-0.298206526934734,-0.908047702549722,0.134919338883457,-0.0921434876087635,2.18319110056991,-0.0749588937440729,0.179043072390454
11.85,-0.413652808334087,0.221700859202097,0.867804672192095,0.10050476620739,-0.0535655850566521,-0.220534643136368,-0.914721334020208,0.249946140271599,-0.214001241815329,0.521801919945498,-0.0962350815534592,-0.349019795656204,-0.963181189323919,-0.0530043651146139,0.168563713287034,-2.31867727953135,0.286700326457178,-0.291066138042398,-0.896048333243115,0.136945806072179,-0.102339948186518,2.17319833108147,-0.0949201817525461,0.186853283935454
11.855,-0.414559370037168,0.212250468571549,0.870949888365067,0.104110367596149,-0.0553784403675925,-0.226901192535528,-0.924286063261489,0.238789246515842,-0.196068005574168,0.599850405962594,-0.0937778056703718,-0.348200710355542,-0.960357186038634,-0.0424067044538709,0.163141546549173,-2.38671255399979,0.299282499791319,-0.267413034593989,-0.893319855240393,0.136487989185341,-0.110902902455707,2.15831573111989,-0.127978024008302,0.189622935161934
11.86,-0.409769784933617,0.214992282480905,0.868305721735382,0.112656952213184,-0.0546103071965102,-0.232221878529393,-0.932557896111067,0.243043119276165,-0.190944250666097,0.647888010946243,-0.0972068842663888,-0.348725480731794,-0.958662641829368,-0.0275810955176585,0.159556765063237,-2.44112072492235,0.313106766873011,-0.231336342519628,-0.888501634081286,0.144812980913786,-0.113456395039456,2.13861422850378,-0.163272543828448,0.190894405236161
11.865,-0.410639544296082,0.226498845138414,0.869390865880512,0.126147375427012,-0.0565161908613942,-0.236304355615321,-0.943582513590177,0.25632860670623,-0.179240060888795,0.695225879879258,-0.0914531045637594,-0.350224015827834,-0.965710329534508,-0.0112254575609222,0.151863061996158,-2.47510197966917,0.330651701525925,-0.193741986360571,-0.883995873918352,0.145201167829327,-0.106768461076452,2.12768675530869,-0.192385899022711,0.184772625925115
11.87,-0.41265848852767,0.237812022140446,0.86304200584551,0.134631471765531,-0.0577282056799757,-0.237516363042351,-0.952154793149938,0.279105954176581,-0.17308369066006,0.710117304072257,-0.0805858054021501,-0.344262326967611,-0.971568730043987,0.00755024754848031,0.156276655199667,-2.50280099543237,0.341836684840303,-0.148307472392924,-0.878788240589555,0.150353525491412,-0.107365279138999,2.1112921029057,-0.205236216850039,0.181981878189053
11.875,-0.405645772337599,0.229217738694818,0.872966076845412,0.122435785830021,-0.0522202415405399,-0.23799203194841,-0.946887284441581,0.284426173639762,-0.164148325283012,0.694061788374114,-0.0624467066931486,-0.343412965420493,-0.977606415063997,0.0360822667054591,0.163801661639423,-2.52635567363476,0.357403238406145,-0.0993494094896549,-0.868997262064098,0.150403521408658,-0.111334654571475,2.10024282753654,-0.207492683699081,0.166305491668256
11.88,-0.398268326041263,0.233417315393125,0.870980665040582,0.122435785830021,-0.046988727172365,-0.232800965891869,-0.941167426160388,0.289550051103452,-0.162178713610922,0.674127291242655,-0.0526771405394517,-0.3494554091662,-0.980760766135372,0.0487058646485583,0.170195977007076,-2.52778011263003,0.363535371242452,-0.0749733027120091,-0.86417338479952,0.143258702050335,-0.11533436551192,2.09693806274692,-0.182227834579279,0.144829888919383
11.885,-0.402116484589981,0.233437408610024,0.874306112211925,0.118221242974419,-0.0488984132127692,-0.244287635300154,-0.933416507034871,0.28732503096288,-0.16063669692661,0.658008597553376,-0.0395712116162681,-0.358679516573648,-0.986538743800788,0.0769189769753978,0.185958967248414,-2.53602109708483,0.374143583883184,-0.0370259722836294,-0.857885954157984,0.14579114576107,-0.119309551232101,2.10751219032063,-0.152855614649905,0.128381457796352
11.89,-0.410322460617908,0.235878989760967,0.868931931396569,0.109159968842362,-0.0496408881300016,-0.245351771204207,-0.934162898013682,0.277271136986193,-0.162547650323992,0.643392027321048,-0.0320763362879461,-0.370931505708601,-0.992989863725697,0.0868462396913248,0.198453227995292,-2.52980345008005,0.364414274692535,-0.01454384313037,-0.85291319805435,0.142876432968931,-0.129443181230605,2.13788176637891,-0.0951132072053229,0.092689937422945
11.895,-0.41729965608075,0.229186090399634,0.864387288633383,0.119320034796959,-0.0539431270260923,-0.25370469112385,-0.930866709623964,0.265007479144891,-0.170036702539882,0.633460879325867,-0.0178724987799218,-0.375897079706192,-0.996891897893422,0.101574093506591,0.221274306348725,-2.52400476554211,0.365864687344257,0.00634758982895168,-0.851110263284905,0.147634809628728,-0.132727395664281,2.15936178793752,-0.0651042544200546,0.0725322534319343
11.9,-0.417001707959682,0.225412745369558,0.861865176184381,0.118760423794683,-0.0565198268142384,-0.256450519832954,-0.927259458933051,0.248121609367611,-0.166780282130289,0.645912745321917,-0.00311558809136354,-0.375304124063414,-0.986710046511067,0.110338093339519,0.249132861574613,-2.48708163731076,0.373552091713221,0.0212007116596789,-0.850304181788335,0.15440143056582,-0.138108148117725,2.18221962211215,-0.0399145002337342,0.0545359907871705
11.905,-0.412145243287493,0.228392380254974,0.865862959777742,0.121072000292341,-0.0656579753692696,-0.252321810993155,-0.922002725575943,0.229126595489948,-0.157879729563643,0.682201666816016,0.0199457314969486,-0.38066040870825,-0.973129429753449,0.104190431467178,0.286729087511787,-2.44629920018549,0.375459226136399,0.0401849937217583,-0.85768781130506,0.156312466097301,-0.142732377534469,2.1971484560216,-0.0210711854611349,0.0387270465741709
11.91,-0.412964617502169,0.231044263348119,0.867172313217015,0.123643949213283,-0.0711428216748566,-0.248541713425077,-0.927658497588981,0.229884733488869,-0.144981659508907,0.703952223029316,0.0460426602796512,-0.383227229118347,-0.96166744420773,0.124760819626951,0.305087275044147,-2.38106955550173,0.370685477780675,0.0436153425421597,-0.868880114166915,0.15503132458725,-0.151897089669965,2.19934248924255,-0.00328110131905088,0.0218145729710628
11.915,-0.41012432096933,0.230115491741252,0.868600983836035,0.119532325053343,-0.065557241978619,-0.244619534497208,-0.93540208772001,0.243778496545183,-0.132327197151572,0.694592178605157,0.0653619849543698,-0.378130008643786,-0.953142645677814,0.129895201294519,0.310610591675273,-2.34812424343055,0.3635678312209,0.0554874018680604,-0.882965430713747,0.158608566584803,-0.146581343120606,2.18208124396624,0.0161842777638486,0.0200046021834587
11.92,-0.397449450559577,0.244768748188981,0.873908257851837,0.111347613598334,-0.0632133846830166,-0.237550379762881,-0.945499874441274,0.255822889435527,-0.11534053059515,0.660471428473039,0.0908642426208941,-0.378833822463454,-0.948001944479652,0.135954682842051,0.31644199049849,-2.30076298268316,0.375263475620378,0.0661619594305544,-0.898267467697901,0.169235076253888,-0.153074605711547,2.16675143989547,0.0268509161391435,0.0171668553450814
11.925,-0.394703669326916,0.248282670962012,0.880034647881721,0.109786152668399,-0.061179981571878,-0.240730592524368,-0.948427897625558,0.256984601043104,-0.110338004252064,0.627386685464383,0.117021032907505,-0.383375680220167,-0.953790530263162,0.146702342605106,0.316076400525715,-2.28470005582025,0.373314149112812,0.0724622193555792,-0.902516311027595,0.170197633755427,-0.155864360666044,2.15627599554899,0.0297412350773811,0.0153623431204291
11.93,-0.383159301498006,0.246536659783927,0.875335888101432,0.112564861112292,-0.0661613914660406,-0.237616770483159,-0.947859473942925,0.249387200080575,-0.108198391878883,0.608243858684362,0.141313172347225,-0.389140812347621,-0.956754684726627,0.164340851901681,0.324857110444217,-2.26392857183959,0.367238322769468,0.0931321120057571,-0.91457153186066,0.168686938332859,-0.159633238040186,2.15303557234515,0.0142821729628458,0.00328815195931947
11.935,-0.392386805886086,0.239931070809113,0.87450028522516,0.107970948415268,-0.0612008307402944,-0.243041378863676,-0.935785341604922,0.229896921363436,-0.122315832246381,0.578293271034117,0.160863447804824,-0.397184980646598,-0.963890414856433,0.185726310502726,0.323421358869927,-2.22126316575717,0.362779168032167,0.103039269285968,-0.920921831376248,0.172181173319809,-0.158982909237374,2.15826511023765,-0.00188130163070029,-0.00816248801486029
11.94,-0.399433182794171,0.227360333453275,0.878193065715269,0.109390658824787,-0.0599778721823038,-0.240159544545928,-0.932421014760413,0.22698687701139,-0.130845978587565,0.561729306284411,0.18196482975812,-0.392826117509819,-0.978766149645271,0.19847677329069,0.319493795051411,-2.21163551279961,0.359166999828561,0.131936565712338,-0.920423834309468,0.165810522792681,-0.16109721482132,2.16298728763981,-0.02513694823387,-0.0265777602115781
11.945,-0.408779012214324,0.231952348513429,0.86996843165831,0.112253631922821,-0.0603080909641871,-0.241184487938881,-0.926249970014094,0.219052671399656,-0.148804613250145,0.560076279312791,0.205918163801096,-0.391540286041021,-0.982081113606935,0.207464164717694,0.318571248872385,-2.17224900063538,0.355673869813634,0.164218014199239,-0.924850194252217,0.169395840513153,-0.15717135475915,2.16914377734587,-0.0510059157035917,-0.0425904697484885
11.95,-0.407842240644511,0.228767545719303,0.870978345751926,0.115707995482618,-0.0641578518028037,-0.240582113972967,-0.922938994668038,0.202985149403363,-0.149522918548135,0.579106983020345,0.228945491214394,-0.390106098546305,-0.979384613598048,0.226656519271718,0.311968124604137,-2.10306001328538,0.353863426249667,0.200520920036209,-0.93139591498545,0.171450447945677,-0.15948880852717,2.17287992215076,-0.0752483329083787,-0.0573161955272234
11.955,-0.405436978756951,0.225416385888304,0.870292370920472,0.118577659730003,-0.0629393057583054,-0.241312728243235,-0.929519912499513,0.182643337049646,-0.147116699663289,0.603843431668233,0.260709066592405,-0.386661099039951,-0.97446838606325,0.23952026332079,0.284114938245979,-2.02898708996906,0.351062096190709,0.233588253302138,-0.935594454869485,0.178416662805742,-0.164160874518808,2.19050888508425,-0.0877451735761671,-0.0757697363530577
11.96,-0.404264859347569,0.232593583209609,0.870736201197558,0.119992397725582,-0.0670761870045014,-0.23947683801376,-0.933161577960307,0.183979060876087,-0.14935770173068,0.617812861608654,0.278129875852095,-0.381248468862853,-0.960949267106639,0.222878673125995,0.273956612420674,-1.97564385616761,0.352819382758368,0.25304338374592,-0.935662092887894,0.179478988389285,-0.174869608179642,2.21769388624186,-0.109613611595081,-0.0921440884413882
11.965,-0.403295224323727,0.233695603867108,0.870985415434392,0.118491445701322,-0.0642236388355535,-0.230573154154424,-0.93448852829956,0.186957928293416,-0.152377724154436,0.611100716380879,0.305646146850877,-0.371947670769386,-0.951346528593782,0.215022175881531,0.257998944330298,-1.93962025456685,0.358207280081667,0.258339839480635,-0.936114571146201,0.185587792939023,-0.181150295888013,2.24246615421062,-0.133108525160174,-0.103952778313239
11.97,-0.401501627603059,0.235777185319089,0.87676817268592,0.108538899752583,-0.0651505411323085,-0.223240793269137,-0.938048837228765,0.197630649033566,-0.150623208174733,0.594230563389794,0.328779340543808,-0.364449219149383,-0.945471691141481,0.207789304673491,0.249878743089612,-1.90032767480705,0.366649614197738,0.262908701963341,-0.937544808570448,0.189055224282304,-0.182941805281411,2.26896448680041,-0.160243711271658,-0.117221419265052
11.975,-0.396737766708215,0.240734860035179,0.874141472461718,0.110120645193734,-0.0638888172364425,-0.216799693570438,-0.944104531132765,0.210738793928355,-0.1504311691706,0.56675989421474,0.352888617428572,-0.36315192672553,-0.941364764493199,0.19263478275213,0.249087078935905,-1.86293159985535,0.372569913457944,0.257555027913128,-0.941616063531803,0.187499324953166,-0.18762122545372,2.29326924622253,-0.19470841460755,-0.133762033627231
11.98,-0.399518212788649,0.241072652376493,0.875499722785622,0.115939098420536,-0.0580624178966762,-0.211806778260411,-0.944434279897924,0.224374028524089,-0.15503833251334,0.518312037623702,0.38080042165522,-0.366887485917729,-0.93546340520367,0.171975919460802,0.25350696807308,-1.83058374037557,0.376157075374744,0.244220698427226,-0.946394878066613,0.186127851069289,-0.188243496098649,2.30681393408887,-0.235866394189544,-0.152811553921887
11.985,-0.400441731611754,0.242739945432987,0.872569073999613,0.105658732282381,-0.0582876432463291,-0.203529733095896,-0.949108886491005,0.232741649692143,-0.159244990862391,0.457284652309069,0.406991335304141,-0.375505443727449,-0.932291071917488,0.157693883901253,0.270859622326708,-1.80118057066235,0.365083067103714,0.237355362731296,-0.951916188282155,0.185260960486463,-0.186269101355834,2.31413393613635,-0.281088925199212,-0.175577972826532
11.99,-0.402958209671184,0.245162513239497,0.873135001139525,0.0942258544104094,-0.0580227944048344,-0.197147999323249,-0.944833742523629,0.234454632876005,-0.162147922628372,0.419230552928464,0.423515464411426,-0.385606240588384,-0.936165945937884,0.149537424867401,0.288260109855221,-1.7807546315698,0.353443441021227,0.229608513132176,-0.957389346606283,0.185891607264019,-0.184930266563468,2.32770596611618,-0.323727147957272,-0.195399929070694
11.995,-0.404388015707084,0.244644621611447,0.869906357854698,0.0814431676643361,-0.0588923801353707,-0.197142931883897,-0.928810500352228,0.232756251713591,-0.170991583523448,0.378262223991574,0.447093359889716,-0.397199890599463,-0.940247771086283,0.146901186613508,0.314645227332869,-1.76527059369443,0.329173663352555,0.214797073413841,-0.962711804673787,0.18850741277674,-0.188753555120791,2.35070677613212,-0.364450627906136,-0.204852671390817
12,-0.40140222257232,0.253197244700313,0.87054144801892,0.0783444097196614,-0.0588977474033941,-0.18862402746731,-0.937169955310726,0.231206654291701,-0.180522132589072,0.354297398305858,0.471214744634212,-0.401451891552526,-0.941157038298063,0.139988239049007,0.325932960458674,-1.73283984929341,0.31156056574051,0.199520753653602,-0.961701054499526,0.186582223272485,-0.19258008439852,2.38280684423956,-0.401469437102352,-0.215679417715822
12.005,-0.398265915300311,0.254644492476125,0.871123318864112,0.0631500221399399,-0.0506561319527454,-0.18563096151383,-0.947099184046509,0.232658674689128,-0.181709841467286,0.314634491887314,0.496772142009795,-0.412179742771774,-0.9498210804833,0.130322587245911,0.347636144460053,-1.70719089079431,0.280256711380491,0.186893112895967,-0.972561633551548,0.190511347123694,-0.204373988136524,2.43780340055375,-0.439646846544597,-0.230736285451497
12.01,-0.399883230223186,0.254684678925741,0.874512931712854,0.0572894922552962,-0.0443474071417188,-0.18562478989763,-0.950366823211629,0.229527264537049,-0.182584913221301,0.308380170988761,0.515683292947076,-0.421635329525601,-0.9565458405658,0.119902458996086,0.357472042443321,-1.68742950237078,0.257049487750872,0.167346107664301,-0.973240767330918,0.185597166583676,-0.208072664942369,2.47898307782962,-0.453465164811089,-0.238150626972653
12.015,-0.398477887916408,0.256058767924401,0.875296440476005,0.0437692845772891,-0.037745027388915,-0.184299554236891,-0.95758323910419,0.229622364189397,-0.187935754394401,0.297824232055116,0.533846662841101,-0.428446635281272,-0.968392456560644,0.110189944443755,0.362038532514186,-1.67993115585875,0.234902421152391,0.164196047799448,-0.98223541063159,0.184838596603295,-0.206773018083358,2.50979914440324,-0.471672936104441,-0.248406719811895
12.02,-0.399192854046191,0.262767742373956,0.875997243066314,0.0299110751711641,-0.0396115787980603,-0.191668560207909,-0.954493352785344,0.232751708936885,-0.196032320653519,0.282021112550104,0.549090770083599,-0.431868559398527,-0.980163493115023,0.100303756308417,0.3577251743667,-1.67232751846313,0.216791407568882,0.164380647294693,-0.983824845140173,0.180213680533514,-0.205024082586939,2.53147215523132,-0.483242096785749,-0.259476368078315
12.025,-0.397133185883615,0.259945697491963,0.871329759430731,0.021626522100259,-0.043070912361145,-0.195364454528722,-0.943503310005937,0.231337232257898,-0.214204465684857,0.267373548083998,0.558232293277305,-0.436220595057875,-0.983887844131823,0.0838459908562821,0.350549897009345,-1.66820997199536,0.199225322322756,0.17573718007786,-0.984138632944049,0.178860722701603,-0.193195758664051,2.54532927652265,-0.500970717808691,-0.272165092630509
12.03,-0.401513222934562,0.25120049585375,0.870011242091115,0.00447292178564192,-0.0408817640225881,-0.201565262924726,-0.93649528091713,0.2185544566593,-0.233694611481738,0.263272448826823,0.568707216401495,-0.440817124863066,-0.983620015634406,0.0677450435558577,0.340681820673863,-1.66512711811226,0.187009129965377,0.196959250198781,-0.984275696715529,0.175128286128142,-0.178311779061144,2.55431301536467,-0.533218340670126,-0.285628634613565
12.035,-0.407182383276504,0.244827443118519,0.875524923816328,0.00720643724222698,-0.0410373947179764,-0.211871740542461,-0.931306638970766,0.20052815356413,-0.250419034789774,0.289840000124721,0.578702350668362,-0.4418685734272,-0.975518462833914,0.0478034786890485,0.323704740965512,-1.66133774415859,0.179330298517371,0.217313179205883,-0.985844785679627,0.17565634902267,-0.168636756181683,2.55947590715708,-0.571111317778927,-0.295825743123451
12.04,-0.406804361481174,0.239453198979192,0.878010621491244,0.00334409520959306,-0.0354517881998213,-0.216135039470469,-0.932724888171818,0.188688534188972,-0.259794550241169,0.31570044191695,0.57858748948692,-0.448971902592572,-0.965828943121995,0.0303298122501908,0.296277377321957,-1.65170451316982,0.178346821374188,0.222753190702687,-0.988409222460198,0.182539758921327,-0.165840713207496,2.56507241907651,-0.599961473313947,-0.303236102498657
12.045,-0.407523099694103,0.235468777445441,0.87517057870099,-0.0029521627928589,-0.0279331957789384,-0.221041916055883,-0.945419084165386,0.182081267884395,-0.272045062278045,0.347557929577194,0.590343997906715,-0.456805760975922,-0.952086777846777,0.0131154965163431,0.267485833181195,-1.66645154749788,0.189311047378094,0.234680532401575,-0.987723057070243,0.194358310049752,-0.166430611393116,2.57082783892913,-0.623660813302147,-0.305636137723923
12.05,-0.409255145576771,0.23181580923056,0.878062074246078,-0.00450649614058505,-0.0161114392692492,-0.214990907595706,-0.950672859509003,0.181238862315733,-0.275567366442209,0.368470784954828,0.590667349475935,-0.45668395856685,-0.941773544222796,-0.00496704038343568,0.246634998082287,-1.69222302233257,0.218300361456603,0.251861492963476,-0.987105254488188,0.203125627688414,-0.172187178779482,2.57492489666266,-0.625786376389417,-0.309590444350982
12.055,-0.401535321652012,0.236185294648274,0.88079513222339,-0.00131501261699819,-0.0193791794049002,-0.216510825713331,-0.952700174107513,0.186340970717041,-0.276283234684899,0.38204893384385,0.59035724401474,-0.464712437701696,-0.944826174583599,-0.022483963145325,0.23303457465398,-1.72756264917769,0.250746299768596,0.266810189417623,-0.985151500925832,0.214805508186398,-0.182617621458931,2.5795221130833,-0.62313812754377,-0.314420751950151
12.06,-0.410181550583325,0.235883095661948,0.881557448717471,-0.00754823708602683,-0.00715736670854065,-0.218322058746364,-0.945900373331073,0.19676594881241,-0.28002709398591,0.380420072502197,0.594022333621979,-0.477898003468577,-0.947471993595774,-0.0375112034114327,0.228952233648363,-1.73959546610499,0.287009968220584,0.269883523088193,-0.98101696730873,0.234867962321633,-0.178352152249889,2.5768614267244,-0.615344079324588,-0.317842890243252
12.065,-0.405061727237362,0.232848089617015,0.875815698593341,-0.0136464370577681,-0.00121720820741008,-0.209463084635093,-0.94292564852252,0.198142239496298,-0.288522295148017,0.377037672436956,0.594143343475525,-0.488402360484931,-0.955321133682416,-0.0446767152648972,0.227078806502951,-1.73771725769618,0.314189491712518,0.280542701482773,-0.969979407762306,0.250859027928345,-0.18258777905799,2.56214815898365,-0.604384479687337,-0.31451938941689
12.07,-0.404640436265096,0.235472697155449,0.87863873781887,-0.0164532453484381,0.00167838790134767,-0.217972293496132,-0.931948077614278,0.197258895158374,-0.290902306129455,0.365607637617224,0.594397453508201,-0.502711048856333,-0.964391722871693,-0.0507880234359302,0.237820302398724,-1.67765436248989,0.345433002187179,0.280804375647108,-0.965959193930858,0.255658901330669,-0.17401501252059,2.53525012586757,-0.605539917945862,-0.32052127196661
12.075,-0.410450840074913,0.232138518732728,0.872101200027714,-0.0165014547598547,0.00772870394343096,-0.218147913285633,-0.920828568883141,0.182287774550985,-0.303818497949404,0.356272057286976,0.590901215219931,-0.517885977855122,-0.962766844817571,-0.0469741641677137,0.240226671196997,-1.60727316693114,0.371700429527327,0.283692718936834,-0.954441584275039,0.254324893537386,-0.154688151492988,2.48545383031033,-0.605643793937864,-0.322999560603158
12.08,-0.411144266055966,0.226987537972565,0.89665430359585,-0.0285238749037109,0.0240096663786861,-0.217602596059418,-0.930064580160771,0.17630709438505,-0.311419053152644,0.363277441195673,0.605254326915949,-0.532435153626669,-0.955077803670408,-0.0533303909787337,0.252210055840552,-1.55895511859672,0.393199286137536,0.29576135403056,-0.964574774066059,0.2572945800012,-0.134374621240386,2.45978799277665,-0.608345443703213,-0.330478031911748
12.085,-0.407814407531924,0.254008110960334,0.903052032462593,-0.0262825570566369,0.0461518828288997,-0.212192208875921,-0.959729987029905,0.179878299038758,-0.306836970794766,0.39576826262641,0.610475860044345,-0.549018886366673,-0.938165891073073,-0.056236135895146,0.256462023480131,-1.50790681402667,0.420015492800459,0.303099712500858,-0.9984120969035,0.247211117782253,-0.124219738957252,2.43954694934055,-0.605263980289286,-0.343363612329201
12.09,-0.398591565846905,0.255665693843662,0.899569060606302,-0.0287625153200354,0.0684445753681711,-0.216765437605551,-0.986853406527945,0.185389508894292,-0.301003110629189,0.418332052848063,0.623076538618532,-0.566747876713982,-0.919848649443859,-0.0377475305926916,0.259379189209919,-1.47647997270003,0.440442190491582,0.302299345134186,-1.04395702183043,0.233575668233352,-0.120064967876455,2.44262822386548,-0.577947571503619,-0.359398683186375
12.095,-0.394335175008212,0.267206434564183,0.895401641774274,-0.0350194521266338,0.101327970395528,-0.233141136855581,-0.998071985214951,0.196123216299274,-0.293162596671729,0.413555890321732,0.621249602730639,-0.564506784320563,-1.00389935143628,-0.0754613558288773,0.230231993403407,-1.45848261142998,0.464291330844674,0.331250124515123,-1.09951756340124,0.19786364017841,-0.114639124265884,2.49655936354623,-0.528196962021568,-0.36841240795375
12.1,-0.400915537485337,0.274149967415618,0.882631761754593,-0.0274755495334309,0.123457562779561,-0.255130633478711,-0.973949072331861,0.179286391507064,-0.308578828213041,0.431344089902915,0.616778098684151,-0.55359323734704,-1.02661380953958,-0.0810263610217318,0.209922017505446,-1.43331052694419,0.47368517933745,0.349450557805906,-1.13671107721768,0.161344496615272,-0.126977355667784,2.56190961972447,-0.504547733432465,-0.36468502176172
12.105,-0.409078545492036,0.249502347651651,0.88793363523137,-0.0323997994914378,0.13561611809407,-0.284872800463793,-0.939586808649205,0.153964709652668,-0.32019048203691,0.504848337087288,0.614429510158957,-0.551821112632751,-1.0411648979237,-0.0716674967461156,0.205879379523312,-1.41294742651505,0.483121917846349,0.364533708051713,-1.16426582862931,0.112912545855184,-0.147450574113557,2.63437177758552,-0.498175871985139,-0.358174593297819
12.11,-0.415398549453368,0.254448388770455,0.890296893737163,-0.02979763929296,0.158287462497354,-0.307472316384854,-0.933072826813042,0.152736115548684,-0.316376158138624,0.569920554316201,0.620808723666551,-0.54753206396017,-1.03564946809606,-0.0713834080538864,0.189655249950322,-1.3810070433585,0.489027142524719,0.391200648556129,-1.19209892962619,0.0658035989853665,-0.172052536375956,2.55655996741743,-0.526533746160943,-0.352725587712151
12.115,-0.40974723503065,0.254709026307582,0.890707519515038,-0.0228841257535534,0.178117535786573,-0.323962215555389,-0.941418731516815,0.162868949500653,-0.300423845193279,0.616971076512728,0.627323249388809,-0.535734434596567,-1.02056444804348,-0.0712738897845061,0.170444714804246,-1.31691330347676,0.486734052053005,0.421207183970912,-1.20444302576427,0.0384142333167773,-0.196572263245304,2.66904637703058,-0.570793279578436,-0.35849625815115
12.12,-0.397044357128407,0.295314893177532,0.867059359165266,-0.0240461500288238,0.200782362342354,-0.34180506528904,-0.976145891600228,0.200635364099276,-0.294617389011385,0.642166387970342,0.618302631442652,-0.52176154141081,-1.00058406316428,-0.0611844769343976,0.143828450189616,-1.21532963555956,0.482701707007245,0.439678957620963,-1.21287614097181,0.00543199380371488,-0.220094791013796,2.83363458431498,-0.639667634109563,-0.377464029848652
12.125,-0.387236808441773,0.335512133581601,0.872680912935052,-0.0584792367948615,0.221357115068116,-0.349589976814402,-1.03136330416194,0.238195865805463,-0.263934546751484,0.671339460923861,0.603752177516761,-0.510278948572324,-0.990748405163245,-0.0425646215553696,0.117040579340708,-1.15669092387694,0.480517477428962,0.443028092384338,-1.22961792446305,-0.0194815480608088,-0.230262254812231,2.82961967761222,-0.702312951406878,-0.390602453674357
12.13,-0.338165779531262,0.389547088354369,0.896654073562917,-0.0652733708561413,0.253484676810667,-0.401669575286409,-1.06589082492114,0.223703205663112,-0.275674167154807,0.676202212999781,0.568497017374406,-0.506631854859393,-0.996648965110546,-0.0250302444785751,0.0900156985888673,-1.1614010328522,0.482815338473071,0.450048424169861,-1.22971675050085,-0.0349159553878165,-0.239536405332833,2.782776127834,-0.746883929711977,-0.418598154532668
12.135,-0.390125865441981,0.364189663813727,0.887983210237283,-0.121251860025262,0.318967632285733,-0.43295112439454,-1.13219018276152,0.295005916495503,-0.331915808061567,0.490991177682007,0.534616036298508,-0.472576499712689,-1.03163695041085,-0.0127345447091935,0.0592552897801126,-1.22637513409657,0.477545907749256,0.426795145384375,-1.22725492632096,-0.0559331697152927,-0.246050197139798,2.71282152922411,-0.737872001793256,-0.442168669635682
12.14,-0.410709349246611,0.315554607435457,0.907298260342659,-0.155607264279061,0.386393524601325,-0.465647667889806,-1.16643394473913,0.300868675458762,-0.364126358796293,0.332952196585191,0.520970156914676,-0.483030740970554,-1.08716615265074,-0.00265462018161143,0.0390258216957181,-1.30511576801294,0.47085781690747,0.392055470826848,-1.2284513764817,-0.0644434336493019,-0.264750099449256,2.64727921031009,-0.69993787547791,-0.454246526691836
12.145,-0.413633194759286,0.373835878706286,0.916970382207535,-0.163082211573641,0.482415893272031,-0.498962014913559,-1.20925015041287,0.285795634333135,-0.391868221863334,0.282108091832104,0.51271628578735,-0.517403260532905,-1.16157270387235,-0.0026599944621893,0.0168723616683503,-1.41880475598655,0.462160798781231,0.346948632996224,-1.22769100846322,-0.063791831437114,-0.270966602932684,2.56903507964513,-0.615398621094563,-0.461399231938434
12.15,-0.382132561689876,0.394812543876905,0.933196041016362,-0.204531839208931,0.649065542939306,-0.528968986076901,-1.24486462332229,0.228531147799225,-0.397263704350969,0.285353196256047,0.489053199570507,-0.542990533960614,-1.25502544354182,-0.00618592669163553,-0.00754045197360335,-1.57117463134983,0.451245938373681,0.295238676177734,-1.22655935897764,-0.0524306044621827,-0.283315600435922,2.47708922212693,-0.461409415195363,-0.456720506108998
12.155,-0.369296699364645,0.352548807050445,0.952190059007258,-0.214561268669515,0.819696318401096,-0.595450585047255,-1.27331858969557,0.185761239332778,-0.404210016261837,0.265501869122955,0.448716146874604,-0.543956180399824,-1.34175689415208,-0.00516285113204539,-0.0322174160445555,-1.73562323206349,0.424140317374918,0.265223248432158,-1.22418887117296,-0.0375688867344684,-0.288913809354001,2.41358055175625,-0.345240552014692,-0.448444406373184
12.16,-0.397822017058173,0.348790944333249,0.938045049298184,-0.225282539349685,1.03051476229499,-0.650815373820134,-1.27969261449333,0.163805412796359,-0.424384959375641,0.295469263226455,0.394072127421001,-0.512738294106879,-1.43005419393308,-0.00701427291889303,-0.0536185472777717,-1.87895802698058,0.399554703360487,0.247614711064539,-1.20202647810339,-0.0177753556345619,-0.283578931028733,2.34188837654242,-0.218075093178523,-0.440638051843117
12.165,-0.393445216926407,0.433944116099283,0.931277644115921,-0.210635495010412,1.26124200436124,-0.732398309652759,-1.26783888958794,0.194780262747233,-0.407108756848046,0.408736011171599,0.348442982006646,-0.464142429415676,-1.49637309700059,-0.00397516448252319,-0.0754782307455242,-1.92844872605746,0.371350015631111,0.252924019906856,-1.17098862975843,0.00191026806693914,-0.263003852140775,2.27957368838759,-0.119139532333476,-0.433663261152468
12.17,-0.35222737180466,0.468304195457809,0.914036361042879,-0.246100477239911,1.40240484403563,-0.808128159944699,-1.24597783198036,0.220707826918675,-0.364465144048101,0.511170854914735,0.289169269316897,-0.390429129722239,-1.53577226930816,-0.00527917043789947,-0.111902410262387,-1.93865692615509,0.345936254201368,0.27928491110389,-1.12899221014187,0.0196022123727688,-0.231179706662471,2.21124503454986,-0.0567954613510298,-0.421705990296044
12.175,-0.386189749413896,0.395202379111401,0.902265044317935,-0.297299814650227,1.51741337074608,-0.930336921564849,-1.20979171014751,0.180885669825705,-0.365046786455729,0.594348582570318,0.20261257510741,-0.287715514720358,-1.54404683826624,0.00856512643241166,-0.142898613301135,-1.92310101028861,0.338342919359503,0.329212457688484,-1.08602722590581,0.0391381562260628,-0.187932674460851,2.1260712016929,-0.017389861239349,-0.411601912387126
12.18,-0.41418225913659,0.411723808175916,0.900998602706085,-0.241581195509272,1.62974378318855,-1.04688465968221,-1.19134892982157,0.105436626101765,-0.391782245374843,0.800334567251808,0.135822534206361,-0.208447710243771,-1.52438011691437,0.0254993592603473,-0.178809118408875,-1.89301345083596,0.341275537455278,0.394567956875915,-1.04245514897899,0.0519448486924062,-0.124648812045985,2.00065806546681,0.0170446567873628,-0.405325265076908
12.185,-0.507311465666462,0.3334548062081,0.883261302226269,-0.237315122844032,1.70969293715014,-1.17747860060367,-1.17011768414322,0.0941419205262234,-0.37972538463446,1.09385030799548,0.0712761285572979,-0.161611547038116,-1.46369463044853,0.037174560711288,-0.220262595842298,-1.84135605545944,0.366940119346927,0.511667890615952,-1.00913927872456,0.0548560609076176,-0.0663123684399478,1.87590351556443,0.0598424435034023,-0.401791265618096
12.19,-0.458183657345776,0.34891899373741,0.853241383261564,-0.238864918764774,1.71802631174823,-1.25111253955813,-1.13992098636593,0.128578124375977,-0.336417850918187,1.30028567401744,-0.00469201275332376,-0.0982623587409128,-1.40266619614427,0.0443849199678324,-0.244670706890655,-1.79150775045642,0.399392838169534,0.61131790547374,-0.999309851778435,0.0413477069889774,-0.0400902054969771,1.7515251294566,0.115075878088595,-0.403545624095247
12.195,-0.476816481438766,0.204243095571722,0.864278813936671,-0.200065748141137,1.67745486846574,-1.41737803018062,-1.11654314317481,0.184558003125443,-0.308493692867579,1.43672235913113,-0.0792871478772262,-0.0300582605127164,-1.3389351609912,0.0421217722909081,-0.255454244086207,-1.73836466852665,0.438036431507357,0.709547869611287,-1.0095108388081,0.0207345477227676,-0.0329909135782069,1.64658967152317,0.177937281515035,-0.407056327601552
12.2,-0.54361056893339,0.305674586920272,0.809103981673097,-0.0381616121148768,1.65585858861808,-1.59263521317398,-1.09979977709208,0.22441567495945,-0.265367561017942,1.46927622088415,-0.215585185459892,0.0444715399552088,-1.27317747911096,0.033100209407748,-0.255403163818746,-1.67392583402553,0.475144384898147,0.811505759661674,-1.04473202712675,-0.0145321377768771,-0.0566694374211736,1.59922623918499,0.234632207014359,-0.403422243192399
12.205,-0.551270785442077,0.311899799068184,0.793108717941703,0.0731245960348263,1.61430153144775,-1.77204639246718,-1.05664872274462,0.298996787787727,-0.231139888224246,1.43307040331873,-0.424884087174337,0.130052403657025,-1.21224361576216,0.0156945165982747,-0.240088875647145,-1.61243953857108,0.499134216814012,0.894842369523517,-1.0871829335019,-0.0513962803258622,-0.0952261010440354,1.65147187290854,0.256450798779133,-0.390461547317402
12.21,-0.598251230800492,0.286199180512656,0.781689997848275,0.177979114892,1.61187393529349,-1.91334892930906,-0.994168121247768,0.376554943660431,-0.256850274040961,1.47967684740568,-0.589647081961853,0.197859290454111,-1.16437851896264,0.00191107606015208,-0.217534022852328,-1.58132862487885,0.506982578233506,0.961983441125029,-1.11250763612126,-0.0823519938248961,-0.123851969234117,1.7664535385372,0.242860538500766,-0.381424537240838
12.215,-0.641352779076561,0.152128376972563,0.815963259366327,0.341992150058038,1.60377681232863,-2.11612618315336,-0.953029626240811,0.431348240996438,-0.28316528858121,1.51392128124624,-0.673582454698186,0.266155845177453,-1.11518847367099,-0.0148225438399215,-0.19117114548032,-1.56744713552133,0.503497264285135,1.02692240150597,-1.12482333046185,-0.112893398361263,-0.155307980504909,1.90216123418969,0.197492019643109,-0.373383161588916
12.22,-0.6484804743037,0.321353673594852,0.833734412604977,0.560516149719013,1.56011457238691,-2.28255517884979,-0.922929889547035,0.456926319438558,-0.307462995608129,1.54826688202903,-0.725115800088573,0.333518174963888,-1.06722475569507,-0.0282218945474994,-0.174662896128296,-1.59150281371671,0.49040352295328,1.09202128682435,-1.12884026636488,-0.145904098935954,-0.181878457048342,2.05640096156475,0.124910796366036,-0.369899331604872
12.225,-0.601787694319585,0.359933021150393,0.774078402097403,0.694946322761371,1.44829062273964,-2.42447358464694,-0.89547650822833,0.445009122061035,-0.288942224140867,1.61735991673389,-0.733405434249832,0.375108294577821,-1.0299884567534,-0.0342325136616513,-0.145442020228756,-1.643182356311,0.477952660343145,1.13596654112451,-1.11208562972358,-0.172985703561495,-0.18788181662184,2.18010503965804,0.0488836109768481,-0.373988209474546
12.23,-0.558099965509428,0.38190944261886,0.63571232287207,0.819767170400341,1.34239597000313,-2.55781192591207,-0.876520028316896,0.445469238142347,-0.246100576072427,1.7993348855804,-0.733657429648395,0.426413731063002,-0.996029607294177,-0.0423500604161276,-0.114432800938007,-1.71697940579801,0.457806363370667,1.16956260278843,-1.0724171517561,-0.200590682779295,-0.172129523739818,2.27911238536937,-0.0202008627979578,-0.380964237799163
12.235,-0.599260687073415,0.405180226299646,0.790769156784528,1.03252340812187,1.20867636628883,-2.66201878266639,-0.833960596409665,0.467741390163343,-0.247878563582233,2.03990731672512,-0.741851544679844,0.49594233077369,-0.959899357340674,-0.0471283489656932,-0.0929870848113763,-1.806237883268,0.43355901368007,1.18810892552228,-1.02679653431312,-0.223340809830325,-0.146891482070733,2.36220101452262,-0.067008581320106,-0.398675076456443
12.24,-0.740139361881522,0.265585317327023,0.809596931032696,1.47902425520547,0.989614445309952,-2.81892445989699,-0.791477997307403,0.487554205744686,-0.288681101757077,2.17854222791866,-0.698775203801424,0.580881851922475,-0.928511742082378,-0.0459607927953405,-0.0781645015819925,-1.88928273782981,0.410860348917977,1.19278790768302,-0.98745915541214,-0.222808820854745,-0.118995863907365,2.40659621459668,-0.0780369892334717,-0.41500914819642
12.245,-0.74084140876707,0.136731323234367,0.649369331791518,2.08105511347956,0.756009559157083,-3.02352192651853,-0.763085799424118,0.516407400610972,-0.284045861819181,2.2738896350436,-0.657703512423512,0.65134846944112,-0.903497267377561,-0.0434815033264643,-0.066675460788149,-1.95103007597987,0.3844941768932,1.18435023558135,-0.944561903055192,-0.215053044296078,-0.089395680505628,2.40840699226365,-0.0508962543464406,-0.434903513447694
12.25,-0.817053089704144,0.284211740674821,0.815556617062769,2.61729816515576,0.606255736097536,-3.03867104813042,-0.749730502649108,0.524564092824235,-0.272938929380235,2.4170185936127,-0.649662733078003,0.706212312969688,-0.881099483094757,-0.0429417954521223,-0.0640532463866986,-1.99814276506906,0.363880294379599,1.17798904267377,-0.914217178123225,-0.207703867117088,-0.0635139472809682,2.37543067786398,0.00685841999816656,-0.456914969266327
12.255,-0.620556100518225,0.672035763861418,0.69001938683975,3.13212623081027,0.309757424154525,-3.21035014999089,-0.732019903224233,0.548923548039473,-0.243886004335882,2.61045009744661,-0.654945374932072,0.773020721911081,-0.85848125083606,-0.0432211669543843,-0.065287850175815,-2.02878966420916,0.337809475900011,1.1782638265214,-0.899320389236606,-0.19937633161776,-0.0434048547193157,2.31034362692906,0.0704817284473617,-0.462743628928587
12.26,-0.867394329543497,0.767429703288237,0.594138093511028,3.37002021328215,0.10187844132458,-3.29711004148915,-0.70863738299713,0.612876973430317,-0.286466870998106,2.85135201818108,-0.675899962613077,0.890017363959893,-0.837603673276641,-0.0487621160530605,-0.0682687576963469,-2.04295221901649,0.320270868095034,1.17511194498126,-0.896856476994199,-0.197695698980816,-0.0362548873160272,2.21366344031648,0.137195070580555,-0.461042929662653
12.265,-0.789418880786071,0.683491674467679,0.677166411579457,3.32920677240764,-0.266326793370225,-3.50691509571573,-0.675835518996171,0.668002346188771,-0.333479762193353,3.02759643836673,-0.695545274870738,0.981851818521958,-0.80903068834929,-0.0555774902297545,-0.0821936247963013,-2.04737870971673,0.29361823824064,1.14679226532276,-0.911006204712697,-0.189588009265803,-0.0296219770464429,2.12149280783971,0.180530195975413,-0.455995044633527
12.27,-0.892158915198652,0.45125723111461,0.853372230210363,3.17061586186648,-0.540816200111024,-3.72101082421271,-0.6711496997778,0.669409482949238,-0.333569164564001,3.17363742710382,-0.711429899136868,1.0498374727913,-0.787380621553951,-0.0610997776897988,-0.0858511669368782,-2.05903953703459,0.286672486880879,1.13627555109442,-0.929945838302033,-0.182528438241338,-0.0332961207608795,2.03218964752238,0.193694001501915,-0.446655572965305
12.275,-0.950994917522734,0.518639063358094,0.912405628616615,3.03451753946126,-0.854951474704358,-3.94076071048835,-0.671729412129772,0.627780490879503,-0.343161609725775,3.3518233747155,-0.724969726804889,1.09998824077295,-0.770811123859523,-0.0675811660917035,-0.0975567106140931,-2.08459650900848,0.281159337166729,1.10317343245653,-0.947984173897742,-0.16815569250272,-0.0282564609248749,1.97117028705003,0.182192082305043,-0.440720772200517
12.28,-0.824114504378423,0.399901257720499,0.869428284677974,2.62996368389468,-1.28999731730566,-4.20970804203305,-0.694430307493054,0.55085976055675,-0.290961265784892,3.59523262700398,-0.759564118233754,1.13443999447629,-0.760341185151511,-0.0741324432579798,-0.112791544679189,-2.14160217758091,0.279018523088759,1.05910955668087,-0.965125832084226,-0.145654974817307,-0.042362746198883,1.8642149078211,0.110008834662236,-0.431274810455521
12.285,-0.761528552619084,0.229156257239791,0.82111512496655,2.34526734611886,-1.52009841936466,-4.42822654391481,-0.738060438351741,0.434101366917639,-0.223152042791461,3.92768924042488,-0.826498611029561,1.16562793698816,-0.754805212876331,-0.0746992013670834,-0.123908210550556,-2.19059551293469,0.282948896892632,1.01940238538569,-0.981917652138564,-0.135936482220341,-0.0499622277577139,1.78054204264486,0.0470469942147843,-0.426334867719848
12.29,-0.717979048588767,-0.0944674460462718,0.800236068200909,2.11109554325462,-1.74756089836878,-4.76387384507144,-0.767959181328958,0.350190752516327,-0.239752538152408,4.20030868206231,-0.88324771964088,1.21792211024141,-0.764765442089452,-0.0738936272385392,-0.142062602333582,-2.26662975848788,0.295501731284123,0.967850923067136,-0.9880377762909,-0.115593153292342,-0.0591152481655534,1.70702679777835,-0.0361965717164388,-0.418034148579979
12.295,-0.828877480427177,-0.0597521105225854,0.720837014850391,2.18671468768727,-1.89842370022009,-5.13413846117887,-0.778044458872527,0.260535273883351,-0.319890925830193,4.45729810550362,-0.937972254821106,1.27704674793063,-0.783809790637577,-0.0689157025926125,-0.155039178554844,-2.35867646952408,0.305437103609492,0.909693457406809,-0.990802579219582,-0.0987377899405877,-0.0585440489458329,1.62979969700806,-0.126598322426717,-0.409151611121865
12.3,-0.881600787209878,0.195923944300502,0.6522145664061,2.25884096120722,-2.0018815106295,-5.33161925570954,-0.781276162022166,0.179489664982252,-0.371808346331654,4.76962356420938,-0.982477150394395,1.31063932023429,-0.809345661525296,-0.0593717623638285,-0.164257425451234,-2.45759251621619,0.318655898562883,0.859217009036902,-0.99349275442698,-0.094033280250149,-0.0635803325869653,1.54842854179049,-0.213543076568726,-0.396020663395164
12.305,-0.857207249760551,0.378144008513013,0.556637903449795,2.32631787450938,-2.06849178943977,-5.38771980399861,-0.788824872712279,0.1297402585311,-0.382164920184384,5.14852349812414,-1.02668414544884,1.34915650852753,-0.842913665205396,-0.0478859456517433,-0.166742517959356,-2.56117728324188,0.335553665646444,0.815966312365143,-0.996226211726064,-0.0901330304011001,-0.0726751634479021,1.47948219271684,-0.291073841375872,-0.384645992868077
12.31,-0.773498923234161,0.513236227227052,0.400288504593012,2.43383078702799,-2.06638845133771,-5.36008745101835,-0.791569203584581,0.121356903316502,-0.372489042713812,5.55353753709783,-1.06492330193113,1.41739926970215,-0.875538396245646,-0.0399110686563699,-0.161257979070706,-2.70523381581557,0.363796161516197,0.771307599274011,-1.00404468236025,-0.0884171092566178,-0.0735865515924375,1.41393437467006,-0.391943024755514,-0.363368156802471
12.315,-0.749628021096068,0.544183101126301,0.343359364186189,2.54510201780513,-1.96922033777507,-5.27706607170797,-0.797411965552888,0.166103809129116,-0.382126233884491,5.76994422168698,-1.08472188761547,1.50483441882204,-0.893868233370614,-0.0406869876041053,-0.153474517440394,-2.80458693954837,0.38521116771669,0.741326592652333,-0.996674556477931,-0.0918154494371578,-0.0713551829681985,1.37712564155583,-0.495380357760134,-0.343066283596733
12.32,-0.774182509051738,0.529677316371004,0.347037256132711,2.67673960117499,-1.87460079369882,-5.17026044816947,-0.793126019102697,0.230411486387573,-0.402985323607061,5.91053655433539,-1.09500853188082,1.61258691724332,-0.912168756597122,-0.0427364184695566,-0.13847112451753,-2.89177764229525,0.408461617043976,0.707789733047406,-0.986892692444941,-0.0989155039435754,-0.0621036378270902,1.37451610565028,-0.579417030834488,-0.327087023100899
12.325,-0.788445903757403,0.531259582798606,0.360312177881704,2.83769150417393,-1.78625794496785,-5.02496361084756,-0.783930903034552,0.260823614799042,-0.41078757116077,5.9465158485231,-1.07683012122605,1.70733677052856,-0.919950145857845,-0.0418296380380996,-0.115447601836731,-2.95136313482887,0.427727933912077,0.673761732788289,-0.971681771083606,-0.103779456858285,-0.0473599323950424,1.40083631938383,-0.63256022923683,-0.310549456892513
12.33,-0.786649713711407,0.524878484745009,0.380393190448125,2.96887573947167,-1.71171278039693,-4.88924757541034,-0.779961963307538,0.28500502971138,-0.411142390361861,5.92387996137598,-1.05928686730984,1.76973573984563,-0.915941291865086,-0.0383933423244907,-0.0942877037756074,-2.98313472874919,0.448474710930645,0.635236145220007,-0.952177653063214,-0.106946771357898,-0.0316338422429689,1.40734954466882,-0.64082894306116,-0.303675218697414
12.335,-0.777771176032815,0.487169656321495,0.41151845492707,3.06897529133207,-1.64464734049457,-4.73907499595046,-0.7807267483288,0.31182013672214,-0.41170171131093,5.85927990750145,-1.03710195557394,1.80476802585879,-0.904252936876217,-0.0288674770849332,-0.0715827956449845,-2.99917319353336,0.464813125936321,0.602410369491096,-0.924408970427949,-0.106882404489342,-0.0236898635859495,1.3390165656421,-0.628110511453753,-0.324678306258173
12.34,-0.776126653844926,0.423177512201863,0.448441231666964,3.13621150067527,-1.57217706611046,-4.58079513915956,-0.777464687273161,0.328984260575412,-0.404500271765653,5.75241717000764,-1.01123684131616,1.81759388376662,-0.891417148617552,-0.0176570066063958,-0.0413177268991374,-2.99504518815514,0.469841234489255,0.571496823963799,-0.901343353793651,-0.121379177816356,-0.0137891901321715,1.32811976933457,-0.548016630273817,-0.347855883420276
12.345,-0.765191644483576,0.356022682182852,0.469745256998376,3.15858682105094,-1.53372875134323,-4.48181458236693,-0.771912828756174,0.326449168702686,-0.388238365889287,5.58510376461602,-0.971683159212325,1.81644316144459,-0.875656855310445,-0.00906275338627564,-0.0201079357087797,-2.94408469011938,0.472877256453584,0.529852948871963,-0.902593029747748,-0.149303669161459,-0.0152368851354238,1.4693994894067,-0.421399485956246,-0.330958139100439
12.35,-0.746857568093563,0.298042774569806,0.481639562472981,3.15858176644705,-1.49294141829848,-4.38275740182039,-0.764518581954666,0.294397991628513,-0.371574200625937,5.38807488342218,-0.921899228140434,1.80400355290313,-0.862987870179513,0.00189171817360559,0.00707680816505432,-2.88138511586428,0.469391483269723,0.494073700965605,-0.90889168927484,-0.162842233351728,-0.0212178193366603,1.6621247677351,-0.310436309842815,-0.287683637052312
12.355,-0.71458900841824,0.242287941213419,0.499533443237215,3.12201234557287,-1.43624046377521,-4.28212970353271,-0.769448340292797,0.246231286881679,-0.357411354256621,5.15756617299242,-0.866881705354589,1.77700108324696,-0.844930446820077,0.018996464620437,0.0449012088884577,-2.78518168365653,0.455084066737757,0.449200412897321,-0.911936782547195,-0.153529723338636,-0.0211502677333752,1.77880299740217,-0.21213306961714,-0.239538530858351
12.36,-0.715082478895102,0.207814785107225,0.511740456025876,3.06976609526563,-1.38868256170877,-4.21244978683002,-0.778240982145576,0.212624623787,-0.336216847094456,5.04176544511778,-0.825758997916648,1.74016287003426,-0.827397344472109,0.0306352887844094,0.0690351401280026,-2.6917479061395,0.442420978470573,0.406294192070541,-0.906369785797179,-0.138588124566991,-0.0210123827717087,1.75033544439307,-0.101127821828347,-0.213866081203087
12.365,-0.698299196834014,0.204841625875754,0.509352046343986,2.97920642155038,-1.35337353458356,-4.13372971582645,-0.79021090881062,0.164965100275634,-0.322186284896057,4.92233265812235,-0.758632716863672,1.69385936317587,-0.815443336811346,0.0496031989318302,0.0958975714921084,-2.56906935717608,0.421118495762563,0.35993570512284,-0.899520830515401,-0.109514461931801,-0.0376528352107185,1.51424440158157,0.0553790872293309,-0.227088689274567
12.37,-0.652038550411609,0.238386198815466,0.513885818275745,2.77254126389959,-1.25190076350631,-3.99376875798973,-0.799745168826848,0.124766275010259,-0.327709349179084,4.7513683436395,-0.682323809731985,1.65367630642198,-0.800883905830371,0.0644315213025137,0.124410836085732,-2.42671162012138,0.395699553124311,0.30009340608997,-0.895703082456217,-0.0956663534935675,-0.0377151400949474,1.25910504001896,0.160013442184597,-0.254079181420367
12.375,-0.623854563826878,0.245925348450376,0.53982665833888,2.63562805950734,-1.1593812339274,-3.8503906820375,-0.817641786284352,0.08827029837033,-0.324751895490966,4.59780448771203,-0.620696539053646,1.61046145758217,-0.794783480615794,0.0821425135302423,0.149387145579932,-2.32419736295135,0.363771185690029,0.246417682124217,-0.90669737409445,-0.10010813712982,-0.0458049208329274,0.925660753268462,0.23868445786146,-0.313169318107458
12.38,-0.60365304818282,0.247666449554546,0.577890668138987,2.50718565912232,-1.06011187997434,-3.66921980401325,-0.837714194587231,0.0550975859623223,-0.327969962200567,4.37564000230916,-0.551091241042669,1.56186946223187,-0.789411528979231,0.0998751702060111,0.17647513611766,-2.20463980717322,0.339754554549447,0.188463972749907,-0.91733739778592,-0.120632126276549,-0.0426167374676884,0.750082512172572,0.252178802040469,-0.353670189909013
12.385,-0.593753539888882,0.244369793892329,0.596289091324486,2.43767896976301,-0.974629628987275,-3.50063284968202,-0.850804953285833,0.0308372847935019,-0.332554804197591,4.17845246488315,-0.499913594978075,1.52984792274466,-0.788603676124901,0.112397276424167,0.192410774693535,-2.11085289502885,0.314688821976458,0.142822844886661,-0.926279902804366,-0.142514287120373,-0.0362766322429902,0.672861660971976,0.221972264794615,-0.366362335671614
12.39,-0.55876117505101,0.226610820343817,0.638084184859752,2.38790242942421,-0.908246821740424,-3.3285650773281,-0.868390698758004,0.0147354403860185,-0.321677228641699,3.98970976492712,-0.451601388844133,1.50021193024086,-0.793240034123325,0.11706623407736,0.206806723542002,-2.07523537192407,0.300905569447352,0.0936622767795738,-0.945601475387929,-0.16820305276082,-0.0338732248149764,0.729740755190252,0.123389669071005,-0.340320154537666
12.395,-0.518215958109434,0.196281766112572,0.664248577839487,2.32411676780449,-0.834513110478423,-3.16362564490704,-0.879348969285722,-0.00104219242710527,-0.312270837600577,3.8194745127013,-0.410652267067919,1.46399560453486,-0.813415543707674,0.119377463814931,0.227689494661817,-2.10302318304579,0.273459420304911,0.036439685458029,-0.954423490841971,-0.177277008447957,-0.0239358046796864,0.800059770978024,0.0219958047580654,-0.309405375624488
12.4,-0.485813195954133,0.144493029015737,0.685139149672898,2.27613384290153,-0.771115537114787,-3.04191908703085,-0.892093372062116,-0.00935491239554173,-0.301641175592429,3.65887034125949,-0.37169467624532,1.43788386838379,-0.841025932921142,0.129182978320754,0.239769723270667,-2.1280146657459,0.251377229756672,-0.00791754432525717,-0.960284115363967,-0.188001548845353,-0.0162663148263357,0.878693874716717,-0.0893004226383381,-0.277574365961993
12.405,-0.461070588215198,0.0829361317720282,0.719654692522052,2.24070975841617,-0.715412348200906,-2.93892158317934,-0.901813290127803,-0.0148920797077793,-0.285793425036399,3.5424057067371,-0.346143108698534,1.40787271675169,-0.866774884089452,0.13663502503947,0.242871563760728,-2.14750912936034,0.22435694725803,-0.0221149475511551,-0.954684492030333,-0.19873883612018,-0.0119225621047809,0.963745365450216,-0.157927970059035,-0.252362925578645
12.41,-0.435046087533385,0.00550969940080801,0.780863583389006,2.20355295374166,-0.653310804657599,-2.86719906418767,-0.916244353467159,-0.0189886846344994,-0.269136520368721,3.39465207088516,-0.312880706636953,1.36901928696831,-0.885156034832465,0.14834270111126,0.245492482844651,-2.14640663285932,0.192117938030333,-0.0357957121505539,-0.947142198921015,-0.205411221134568,-0.0111563664175945,1.0439706292895,-0.216507954180074,-0.227419432700323
12.415,-0.42445760254455,-0.0520561540077141,0.834330962237572,2.17337903656206,-0.626664982508458,-2.84630721881968,-0.929186823013211,-0.03355487726214,-0.25788700095083,3.29239567782424,-0.300478873515095,1.33568828490759,-0.896135574938628,0.147260425291048,0.245843439216118,-2.08383978108776,0.160883356810213,-0.058039382695093,-0.939850079213187,-0.209618231652076,-0.0100101602052815,1.05192517991738,-0.244019101225412,-0.222855259449511
12.42,-0.409662885280234,-0.102135021938252,0.878186276907327,2.14365456463336,-0.62258672550305,-2.85095257573978,-0.936555960326001,-0.0560084892145312,-0.253523067174489,3.1917479922117,-0.296958311343174,1.29944665514089,-0.903187915837236,0.138175457515738,0.248213277747293,-1.98934086170752,0.134371596606666,-0.0764631780453261,-0.930103203739108,-0.20722924007782,-0.00406004840907103,1.04145613408309,-0.259491325638203,-0.229905488791373
12.425,-0.399032429983656,-0.139279751888725,0.914870928876869,2.11635099606722,-0.632142825525105,-2.86820553194453,-0.938023704450607,-0.0700544980887114,-0.244293179504311,3.14422729717241,-0.293447855663266,1.25412175729388,-0.908553661515958,0.115096528646532,0.249362835734687,-1.8846359019028,0.119684833955927,-0.105150708974589,-0.925314370904086,-0.203879141870362,0.00165693708017049,1.06287230651509,-0.230029008349152,-0.227349733026286
12.43,-0.394197652040301,-0.129956211143341,0.934352732931218,2.08507114960874,-0.656799870520306,-2.8946571542671,-0.945231316231123,-0.0902849983710476,-0.216051264796145,3.13044745116328,-0.274579290294423,1.1752712950918,-0.924700759135058,0.0803620736942063,0.253841454455521,-1.72895375724079,0.107425362856362,-0.156176739612768,-0.926918601514944,-0.215828408533602,0.0264900796157038,1.1967448328269,-0.066759181187127,-0.193645029302853
12.435,-0.382993873533449,-0.0769509744997973,0.943629385646452,1.97188257294405,-0.672768451858706,-2.90306692988602,-0.952009894411321,-0.107831801679487,-0.203731120524011,3.11265431315725,-0.257383309418145,1.10910627637013,-0.935303033672813,0.0666004521415457,0.261231042061856,-1.62134674041532,0.102403613624595,-0.211543350233899,-0.931283898547835,-0.186780597662248,0.0298814145174451,1.13399823363385,0.076321762192732,-0.162323530673379
12.44,-0.37232793059274,-0.034219007427788,0.95431375889373,1.81493774607463,-0.674467961327974,-2.89019287705027,-0.96231004193005,-0.121224113565352,-0.196355652194402,3.07012532717719,-0.246808043659559,1.04854864283111,-0.947827869399149,0.0690048316136081,0.269967694261754,-1.51186005187064,0.0934282376633796,-0.275133900207895,-0.961299885196786,-0.120392586562433,-0.0486948082306862,0.715929692085203,-0.00837099175774732,-0.190247807497287
12.445,-0.347832615587474,-0.0167473329524508,0.959105923508119,1.67431404014861,-0.683696338383851,-2.8432138137883,-0.967121897095746,-0.1239362587204,-0.191388008666814,2.99902402326397,-0.228047636571756,0.965495927881829,-0.9587523251404,0.0841530972774857,0.276334792924629,-1.44241598424838,0.0860100046164095,-0.337486853380981,-0.964147071105462,-0.103804958564806,-0.089272148448731,0.299876928266846,-0.354914739994319,-0.31904899491012
12.45,-0.317813674897556,0.0328048133028503,0.952260230231152,1.59052731566281,-0.69035379616411,-2.74689380990985,-0.973408957519207,-0.126976996317653,-0.180640064594322,2.90943532387558,-0.212938367432876,0.887398002756682,-0.971509861513453,0.100138492494383,0.280143431328085,-1.47614247618625,0.0843583207804525,-0.373425660849151,-0.94678408550113,-0.202136396090253,-0.00966466123209363,0.539761254209929,-0.321037870842015,-0.310628443640662
12.455,-0.28144117038248,0.108120082750279,0.932128908030741,1.51607196277569,-0.682563579588003,-2.64014653315436,-0.986253946448177,-0.125929364334823,-0.162618094534261,2.8304224235984,-0.188831041480192,0.831094742401192,-0.976778712618198,0.129517509063034,0.273373401956258,-1.53526955284266,0.0761265153303214,-0.401625782679362,-0.972630099890591,-0.259143736569927,0.0451069779675681,1.13584035544963,-0.0721990160551255,-0.106138975382298
12.46,-0.255982747682736,0.158739080169506,0.923352072630497,1.43666340338331,-0.664322203972507,-2.53698470460516,-0.991488126624803,-0.11996617664367,-0.140527376523151,2.74986427574718,-0.18362220785392,0.785645696989303,-0.97476923873283,0.136193695061899,0.253743573052921,-1.55727705091447,0.0605908613576377,-0.41481267235334,-0.965191187263954,-0.202136727757133,0.043482302854272,1.39016268904256,0.0641801703678845,0.0330267127593542
12.465,-0.225289960587389,0.225170460009812,0.92307914024143,1.31807681555155,-0.633176062097448,-2.39734323501708,-0.997975201239186,-0.0910111151656629,-0.11702175794565,2.6441656625015,-0.177148557266345,0.730996779124056,-0.968416354691118,0.126864861578692,0.227476010133701,-1.47846251551149,0.0343965117481693,-0.392134260244782,-0.940917234752885,-0.127960116177803,0.0368842436821906,1.39832580634856,0.160858712170609,0.0769570596039964
12.47,-0.203224835048565,0.262525914472516,0.93358873788024,1.21907706032687,-0.609809830766394,-2.26342623744014,-0.994449179751031,-0.0734751852653394,-0.0983031824615401,2.54262465904342,-0.181572432637406,0.675068253911748,-0.960895420499446,0.104600826784933,0.183332551877798,-1.36869188663495,0.0135056004714425,-0.367734379886738,-0.927312932250941,-0.108449691079486,0.047764623408078,1.29258976430916,0.312825413123998,0.0604282318777443
12.475,-0.168085965791593,0.295707711360719,0.928565578735007,1.13821781288188,-0.594540159062027,-2.12210762559737,-0.994156970596277,-0.0602566757744722,-0.0678226631418357,2.3980224517189,-0.181766217197929,0.634369162628336,-0.951635733827951,0.0849829825939902,0.152331634504832,-1.18989254876638,-0.00610506116452611,-0.351373245497612,-0.937961361850812,-0.12844456478202,0.0603281208540493,1.23899775391868,0.536140767898149,0.0635165393817945
12.48,-0.124718333535301,0.333259223761697,0.926333292922122,1.06874697143317,-0.571098591571508,-1.96194551917376,-0.991368779866586,-0.0454915635650413,-0.0467234077232961,2.2682134928624,-0.189601684740395,0.602218996022202,-0.941539469985354,0.0915073788116077,0.141515458802258,-1.05781030141496,-0.00418770586354701,-0.367000327584734,-0.962504501329783,-0.125118576180423,0.0567716362028898,1.19051134100076,0.649632262426276,0.0882535953960876
12.485,-0.0854065081908318,0.368789250222275,0.919418904475882,1.01207567781631,-0.548217942715416,-1.8166496532483,-0.982812062578614,-0.0306423623234868,-0.0224337602174275,2.12936881820247,-0.203119013783186,0.567690172571896,-0.931909319873364,0.104710563422679,0.133058869191682,-0.98112348382253,0.0103332366311666,-0.392479916746704,-0.995136846021524,-0.12467978884613,0.0278640380672062,1.14793886072337,0.640593916559826,0.0994143539275214
12.49,-0.044482783705183,0.40758044723719,0.917766971529094,0.94317306145472,-0.515835408748541,-1.64564592211418,-0.983623290923119,-0.0166296561715988,-0.0106225480436231,1.97903551181383,-0.227191105480591,0.538380804248634,-0.927013265658068,0.121522542345364,0.12031963581085,-0.894470955852688,0.0314831109650406,-0.42443478726576,-1.00935495041101,-0.131193958874632,0.00304079307237701,1.15336597689166,0.541163077239334,0.0977289132184188
12.495,-0.0151811738698486,0.427357921316342,0.905405953566579,0.897830261176301,-0.495515148808213,-1.49594438660095,-0.978346812735926,0.00424119935459286,0.0110367021994458,1.75940888706356,-0.257204812510379,0.501138327155296,-0.924722118363181,0.143922404023276,0.101825642150666,-0.778914424139372,0.0514728399442514,-0.464168674658211,-1.0115180990917,-0.126802249599982,-0.0168190928811551,1.13313201485036,0.407276354216837,0.108236337467509
